magic,size,crc16,status_flags,time_boot_ms,ms5607_pressure_mbar,ms5607_temperature_c,bmi323_accel_x,bmi323_accel_y,bmi323_accel_z,bmi323_gyro_x,bmi323_gyro_y,bmi323_gyro_z,adxl375_accel_x,adxl375_accel_y,adxl375_accel_z,bm1422_magn_x,bm1422_magn_y,bm1422_magn_z,gps_lat,gps_lng,gps_alt,gps_speed,gps_course,gps_num_sats
"COREYMAY3",98,30359,0,9486615,901.780029,52.730000,0.087790,0.056532,0.995360,-0.182927,-0.121951,-0.121951,0.539000,0.245000,0.539000,0.000000,0.000000,0.000000,31.0473175,-103.5266418,884.890,0.000,6070,21
"COREYMAY3",98,23843,0,9486625,901.780029,52.730000,0.095726,0.061416,1.000244,-0.182927,-0.121951,-0.243902,0.539000,0.245000,0.539000,0.000000,0.000000,0.000000,31.0473175,-103.5266418,884.890,0.000,6070,21
"COREYMAY3",98,22930,0,9486635,901.789978,52.730000,0.099023,0.054457,0.985470,-0.182927,-0.121951,0.365854,0.637000,0.245000,0.490000,0.000000,0.000000,0.000000,31.0473175,-103.5266418,884.890,0.000,6070,21
"COREYMAY3",98,16202,0,9486645,901.789978,52.730000,0.097558,0.057387,1.000855,-0.121951,-0.060976,0.182927,0.490000,0.392000,0.539000,0.000000,0.000000,0.000000,31.0473175,-103.5266418,884.890,0.000,6070,21
"COREYMAY3",98,47499,0,9486655,901.789978,52.730000,0.095360,0.057021,0.993040,-0.060976,-0.121951,0.426829,0.490000,0.294000,0.588000,0.000000,0.000000,0.000000,31.0473175,-103.5266418,884.890,0.000,6070,21
"COREYMAY3",98,24673,0,9486665,901.789978,52.730000,0.096337,0.060928,0.996581,-0.121951,-0.121951,0.060976,0.490000,0.343000,0.637000,0.000000,0.000000,0.000000,31.0473175,-103.5266418,884.890,0.000,6070,21
"COREYMAY3",98,54179,0,9486675,901.809998,52.730000,0.092063,0.054457,1.010256,-0.182927,-0.121951,-0.426829,0.490000,0.392000,0.588000,0.000000,0.000000,0.000000,31.0473175,-103.5266418,884.890,0.000,6070,21
"COREYMAY3",98,8213,0,9486685,901.809998,52.730000,0.078510,0.045788,0.988034,-0.182927,-0.060976,0.121951,0.637000,0.245000,0.588000,0.000000,0.000000,0.000000,31.0473175,-103.5266418,884.890,0.000,6070,21
"COREYMAY3",98,11160,0,9486695,901.809998,52.730000,0.115995,0.052503,0.997070,-0.121951,-0.060976,0.609756,0.588000,0.294000,0.539000,0.000000,0.000000,0.000000,31.0473175,-103.5266418,884.890,0.000,6070,21
"COREYMAY3",98,7040,0,9486705,901.809998,52.730000,0.091941,0.061050,1.000366,0.000000,0.000000,0.548781,0.588000,0.392000,0.637000,0.000000,0.000000,0.000000,31.0473175,-103.5266418,884.890,0.000,6070,21
"COREYMAY3",98,20069,0,9486715,901.770020,52.730000,0.096459,0.061172,0.978266,0.000000,0.000000,0.548781,0.637000,0.343000,0.588000,0.000000,0.000000,0.000000,31.0473175,-103.5266418,884.890,0.000,6070,21
"COREYMAY3",98,33362,0,9486725,901.770020,52.730000,0.119536,0.061172,1.006593,-0.121951,-0.121951,-0.121951,0.539000,0.294000,0.539000,0.000000,0.000000,0.000000,31.0473175,-103.5266418,884.890,0.000,6070,21
"COREYMAY3",98,50927,0,9486735,901.770020,52.730000,0.087912,0.054212,0.996581,-0.182927,-0.060976,-0.182927,0.490000,0.343000,0.637000,0.000000,0.000000,0.000000,31.0473175,-103.5266418,884.890,0.000,6070,21
"COREYMAY3",98,12377,0,9486745,901.770020,52.730000,0.093162,0.031258,0.979243,-0.121951,0.000000,0.182927,0.637000,0.294000,0.637000,0.000000,0.000000,0.000000,31.0473175,-103.5266418,884.890,0.000,6070,21
"COREYMAY3",98,14648,0,9486755,901.729980,52.730000,0.109524,0.072894,1.007814,0.000000,0.060976,0.121951,0.588000,0.294000,0.588000,0.000000,0.000000,0.000000,31.0473175,-103.5266418,884.890,0.000,6070,21
"COREYMAY3",98,49250,0,9486765,901.729980,52.730000,0.100366,0.041880,0.987424,0.000000,0.060976,0.121951,0.490000,0.392000,0.588000,0.000000,0.000000,0.000000,31.0473175,-103.5266418,884.890,0.000,6070,21
"COREYMAY3",98,31465,0,9486775,901.729980,52.730000,0.086203,0.056532,0.994017,0.000000,0.000000,-0.365854,0.539000,0.294000,0.539000,0.000000,0.000000,0.000000,31.0473175,-103.5266418,884.890,0.000,6070,21
"COREYMAY3",98,23118,0,9486785,901.729980,52.730000,0.115140,0.057509,1.016606,-0.060976,0.000000,-0.670732,0.539000,0.343000,0.539000,0.000000,0.000000,0.000000,31.0473175,-103.5266418,884.890,0.000,6070,21
"COREYMAY3",98,12769,0,9486795,901.789978,52.730000,0.069353,0.051038,0.978388,-0.121951,0.121951,-0.304878,0.490000,0.343000,0.588000,0.000000,0.000000,0.000000,31.0473175,-103.5266418,884.890,0.000,6070,21
"COREYMAY3",98,64345,0,9486805,901.789978,52.730000,0.110745,0.044933,0.999878,0.000000,0.060976,-0.365854,0.588000,0.392000,0.588000,0.000000,0.000000,0.000000,31.0473175,-103.5266418,884.890,0.000,6070,21
"COREYMAY3",98,49232,0,9486815,901.789978,52.730000,0.096947,0.065690,1.005372,0.121951,0.060976,-0.243902,0.539000,0.294000,0.539000,0.000000,0.000000,0.000000,31.0473175,-103.5266418,884.890,0.000,6070,21
"COREYMAY3",98,61765,0,9486825,901.789978,52.730000,0.081197,0.063614,0.980220,0.060976,0.060976,-0.426829,0.490000,0.245000,0.490000,0.000000,0.000000,0.000000,31.0473175,-103.5266418,884.890,0.000,6070,21
"COREYMAY3",98,9955,0,9486835,901.789978,52.730000,0.099512,0.061905,1.005372,-0.060976,-0.060976,-0.731707,0.588000,0.245000,0.539000,0.000000,0.000000,0.000000,31.0473175,-103.5266418,884.890,0.000,6070,21
"COREYMAY3",98,12181,0,9486845,901.789978,52.730000,0.092186,0.060684,0.995849,-0.121951,0.000000,-0.426829,0.490000,0.294000,0.490000,0.000000,0.000000,0.000000,31.0473175,-103.5266418,884.890,0.000,6070,21
"COREYMAY3",98,10495,0,9486855,901.789978,52.730000,0.087912,0.043101,0.988034,-0.060976,0.060976,-0.182927,0.539000,0.392000,0.539000,0.000000,0.000000,0.000000,31.0473175,-103.5266418,884.890,0.000,6070,21
"COREYMAY3",98,31264,0,9486865,901.789978,52.730000,0.087424,0.071795,1.005983,0.000000,0.121951,-0.243902,0.441000,0.294000,0.637000,0.000000,0.000000,0.000000,31.0473175,-103.5266418,884.890,0.000,6070,21
"COREYMAY3",98,27674,0,9486875,901.760010,52.730000,0.100733,0.064957,0.985836,0.060976,0.121951,-0.060976,0.441000,0.294000,0.637000,0.000000,0.000000,0.000000,31.0473175,-103.5266418,884.890,0.000,6070,21
"COREYMAY3",98,16955,0,9486885,901.760010,52.730000,0.087546,0.060928,1.002076,0.000000,0.060976,-0.548781,0.490000,0.294000,0.539000,0.000000,0.000000,0.000000,31.0473175,-103.5266418,884.890,0.000,6070,21
"COREYMAY3",98,8547,0,9486895,901.760010,52.730000,0.084615,0.054212,1.004884,-0.121951,0.060976,-0.426829,0.588000,0.294000,0.539000,0.000000,0.000000,0.000000,31.0473175,-103.5266418,884.890,0.000,6070,21
"COREYMAY3",98,24477,0,9486905,901.760010,52.730000,0.084737,0.051648,0.982418,-0.121951,-0.060976,0.060976,0.539000,0.294000,0.637000,0.000000,0.000000,0.000000,31.0473175,-103.5266418,884.890,0.000,6070,21
"COREYMAY3",98,42639,0,9486915,901.750000,52.730000,0.090965,0.066300,1.008303,0.000000,0.000000,-0.060976,0.490000,0.343000,0.637000,0.000000,0.000000,0.000000,31.0473175,-103.5266418,884.890,0.000,6070,21
"COREYMAY3",98,59349,0,9486925,901.750000,52.730000,0.092063,0.047497,0.988889,0.060976,0.060976,0.304878,0.539000,0.392000,0.686000,0.000000,0.000000,0.000000,31.0473175,-103.5266418,884.890,0.000,6070,21
"COREYMAY3",98,9964,0,9486935,901.750000,52.730000,0.090110,0.075336,0.994628,0.000000,0.000000,0.121951,0.490000,0.343000,0.588000,0.000000,0.000000,0.000000,31.0473175,-103.5266418,884.890,0.000,6070,21
"COREYMAY3",98,22208,0,9486945,901.750000,52.730000,0.092552,0.060317,1.008791,-0.060976,0.000000,-0.304878,0.539000,0.294000,0.588000,0.000000,0.000000,0.000000,31.0473175,-103.5266418,884.890,0.000,6070,21
"COREYMAY3",98,9850,0,9486955,901.750000,52.730000,0.072283,0.055678,0.981807,-0.121951,-0.060976,0.121951,0.490000,0.294000,0.588000,0.000000,0.000000,0.000000,31.0473175,-103.5266418,884.890,0.000,6070,21
"COREYMAY3",98,30412,0,9486965,901.750000,52.730000,0.127717,0.050305,1.002198,-0.121951,-0.060976,0.304878,0.637000,0.343000,0.539000,0.000000,0.000000,0.000000,31.0473175,-103.5266418,884.890,0.000,6070,21
"COREYMAY3",98,36243,0,9486975,901.750000,52.730000,0.074603,0.069231,0.996093,0.000000,0.000000,0.182927,0.441000,0.294000,0.539000,0.000000,0.000000,0.000000,31.0473175,-103.5266418,884.890,0.000,6070,21
"COREYMAY3",98,52738,0,9486985,901.750000,52.730000,0.086325,0.060440,0.984249,0.000000,0.000000,0.182927,0.490000,0.343000,0.588000,0.000000,0.000000,0.000000,31.0473175,-103.5266418,884.890,0.000,6070,21
"COREYMAY3",98,14380,0,9486995,901.739990,52.730000,0.120269,0.075702,1.012820,-0.121951,-0.060976,-0.304878,0.637000,0.294000,0.490000,0.000000,0.000000,0.000000,31.0473175,-103.5266418,884.890,0.000,6070,21
"COREYMAY3",98,49923,0,9487005,901.739990,52.730000,0.066911,0.051404,0.985470,-0.182927,-0.060976,-0.426829,0.490000,0.294000,0.441000,0.000000,0.000000,0.000000,31.0473175,-103.5266418,884.890,0.000,6070,21
"COREYMAY3",98,31038,0,9487015,901.739990,52.730000,0.091453,0.041148,0.987179,-0.121951,-0.121951,0.060976,0.539000,0.294000,0.637000,0.000000,0.000000,0.000000,31.0473175,-103.5266418,884.890,0.000,6070,21
"COREYMAY3",98,9041,0,9487025,901.739990,52.730000,0.110501,0.082418,1.010256,0.000000,-0.121951,0.060976,0.490000,0.392000,0.441000,0.000000,0.000000,0.000000,31.0473175,-103.5266418,884.890,0.000,6070,21
"COREYMAY3",98,18297,0,9487035,901.770020,52.730000,0.074969,0.047741,0.978632,0.000000,-0.060976,0.060976,0.490000,0.245000,0.539000,0.000000,0.000000,0.000000,31.0473175,-103.5266418,884.890,0.000,6070,21
"COREYMAY3",98,11086,0,9487045,901.770020,52.730000,0.104640,0.078999,1.003907,-0.060976,-0.121951,-0.304878,0.637000,0.294000,0.637000,0.000000,0.000000,0.000000,31.0473175,-103.5266418,884.890,0.000,6070,21
"COREYMAY3",98,46515,0,9487055,901.770020,52.730000,0.104274,0.054823,1.011233,-0.182927,-0.060976,-0.548781,0.588000,0.245000,0.588000,0.000000,0.000000,0.000000,31.0473175,-103.5266418,884.890,0.000,6070,21
"COREYMAY3",98,40304,0,9487065,901.770020,52.730000,0.063004,0.064225,0.970208,-0.243902,-0.060976,-0.304878,0.588000,0.294000,0.539000,0.000000,0.000000,0.000000,31.0473175,-103.5266418,884.890,0.000,6070,21
"COREYMAY3",98,30301,0,9487075,901.780029,52.730000,0.110501,0.053358,1.010378,-0.182927,-0.121951,0.060976,0.539000,0.392000,0.637000,0.000000,0.000000,0.000000,31.0473175,-103.5266418,884.890,0.000,6070,21
"COREYMAY3",98,15617,0,9487085,901.780029,52.730000,0.102686,0.064347,0.994383,-0.060976,-0.121951,0.243902,0.637000,0.294000,0.539000,0.000000,0.000000,0.000000,31.0473175,-103.5266418,884.890,0.000,6070,21
"COREYMAY3",98,15814,0,9487095,901.780029,52.730000,0.057875,0.061172,0.987302,-0.060976,-0.121951,-0.121951,0.539000,0.392000,0.539000,0.000000,0.000000,0.000000,31.0473175,-103.5266418,884.890,0.000,6070,21
"COREYMAY3",98,42707,0,9487105,901.780029,52.730000,0.109524,0.073138,1.017216,-0.243902,-0.121951,-0.670732,0.539000,0.392000,0.637000,0.000000,0.000000,0.000000,31.0473175,-103.5266418,884.890,0.000,6070,21
"COREYMAY3",98,24506,0,9487115,901.770020,52.730000,0.077534,0.064103,0.982051,-0.365854,-0.182927,-0.548781,0.539000,0.392000,0.637000,0.000000,0.000000,0.000000,31.0473175,-103.5266418,884.890,0.000,6070,21
"COREYMAY3",98,27060,0,9487125,901.770020,52.730000,0.088767,0.037607,0.993895,-0.365854,-0.182927,-0.304878,0.490000,0.196000,0.588000,0.000000,0.000000,0.000000,31.0473175,-103.5266418,884.890,0.000,6070,21
"COREYMAY3",98,56797,0,9487135,901.770020,52.730000,0.089133,0.084982,1.002808,-0.182927,-0.182927,0.243902,0.637000,0.343000,0.588000,0.000000,0.000000,0.000000,31.0473175,-103.5266418,884.890,0.000,6070,21
"COREYMAY3",98,50563,0,9487145,901.770020,52.730000,0.102076,0.058120,0.985470,-0.182927,-0.243902,0.426829,0.637000,0.294000,0.588000,0.000000,0.000000,0.000000,31.0473175,-103.5266418,884.890,0.000,6070,21
"COREYMAY3",98,64299,0,9487155,901.789978,52.730000,0.082540,0.075946,1.003785,-0.182927,-0.243902,0.000000,0.490000,0.392000,0.490000,0.000000,0.000000,0.000000,31.0473175,-103.5266418,884.890,0.000,6070,21
"COREYMAY3",98,15591,0,9487165,901.789978,52.730000,0.095726,0.048840,0.995360,-0.365854,-0.182927,0.365854,0.588000,0.294000,0.588000,0.000000,0.000000,0.000000,31.0473175,-103.5266418,884.890,0.000,6070,21
"COREYMAY3",98,29413,0,9487175,901.789978,52.730000,0.084615,0.052503,0.989621,-0.365854,-0.243902,0.731707,0.588000,0.392000,0.539000,0.000000,0.000000,0.000000,31.0473175,-103.5266418,884.890,0.000,6070,21
"COREYMAY3",98,46356,0,9487185,901.789978,52.730000,0.098046,0.071429,0.998657,-0.243902,-0.243902,0.975610,0.539000,0.392000,0.637000,0.000000,0.000000,0.000000,31.0473175,-103.5266418,884.890,0.000,6070,21
"COREYMAY3",98,23894,0,9487195,901.770020,52.730000,0.097070,0.056410,0.983272,-0.121951,-0.243902,1.341463,0.539000,0.294000,0.588000,0.000000,0.000000,0.000000,31.0473175,-103.5266418,884.890,0.000,6070,21
"COREYMAY3",98,8842,0,9487205,901.770020,52.730000,0.108669,0.073748,1.005250,-0.182927,-0.243902,0.731707,0.490000,0.294000,0.539000,0.000000,0.000000,0.000000,31.0473175,-103.5266418,884.890,0.000,6070,21
"COREYMAY3",98,19151,0,9487215,901.770020,52.730000,0.080220,0.031136,1.006227,-0.365854,-0.243902,0.243902,0.539000,0.392000,0.637000,0.000000,0.000000,0.000000,31.0473175,-103.5266418,884.890,0.000,6070,21
"COREYMAY3",98,20626,0,9487225,901.770020,52.730000,0.090720,0.073016,0.979731,-0.426829,-0.182927,0.487805,0.588000,0.343000,0.588000,0.000000,0.000000,0.000000,31.0473175,-103.5266418,884.890,0.000,6070,21
"COREYMAY3",98,39530,0,9487235,901.780029,52.730000,0.117582,0.035409,1.007082,-0.304878,-0.182927,0.548781,0.539000,0.343000,0.588000,0.000000,0.000000,0.000000,31.0473175,-103.5266418,884.890,0.000,6070,21
"COREYMAY3",98,27136,0,9487245,901.780029,52.730000,0.084493,0.060806,0.981807,-0.182927,-0.243902,0.670732,0.539000,0.294000,0.539000,0.000000,0.000000,0.000000,31.0473175,-103.5266418,884.890,0.000,6070,21
"COREYMAY3",98,39468,0,9487255,901.780029,52.730000,0.100977,0.057143,0.993040,-0.121951,-0.304878,0.609756,0.637000,0.343000,0.686000,0.000000,0.000000,0.000000,31.0473175,-103.5266418,884.890,0.000,6070,21
"COREYMAY3",98,10372,0,9487265,901.780029,52.730000,0.102198,0.063980,1.017216,-0.243902,-0.304878,-0.121951,0.637000,0.245000,0.588000,0.000000,0.000000,0.000000,31.0473175,-103.5266418,884.890,0.000,6070,21
"COREYMAY3",98,1636,0,9487275,901.739990,52.730000,0.073748,0.038584,0.974359,-0.365854,-0.304878,0.182927,0.588000,0.343000,0.637000,0.000000,0.000000,0.000000,31.0473175,-103.5266418,884.890,0.000,6070,21
"COREYMAY3",98,15229,0,9487285,901.739990,52.730000,0.120757,0.040904,1.004151,-0.243902,-0.243902,0.609756,0.539000,0.294000,0.588000,0.000000,0.000000,0.000000,31.0473175,-103.5266418,884.890,0.000,6070,21
"COREYMAY3",98,54030,0,9487295,901.739990,52.730000,0.109768,0.074725,1.005494,-0.060976,-0.182927,0.731707,0.539000,0.294000,0.490000,0.000000,0.000000,0.000000,31.0473175,-103.5266418,884.890,0.000,6070,21
"COREYMAY3",98,50600,0,9487305,901.739990,52.730000,0.069597,0.036264,0.971795,0.000000,-0.121951,0.914634,0.490000,0.343000,0.588000,0.000000,0.000000,0.000000,31.0473175,-103.5266418,884.890,0.000,6070,21
"COREYMAY3",98,51789,0,9487315,901.770020,52.730000,0.130403,0.085348,1.015385,-0.060976,-0.243902,0.426829,0.539000,0.245000,0.588000,0.000000,0.000000,0.000000,31.0473175,-103.5266418,884.890,0.000,6070,21
"COREYMAY3",98,43334,0,9487325,901.770020,52.730000,0.098657,0.032479,0.999756,-0.182927,-0.182927,0.060976,0.441000,0.294000,0.588000,0.000000,0.000000,0.000000,31.0473175,-103.5266418,884.890,0.000,6070,21
"COREYMAY3",98,21160,0,9487335,901.770020,52.730000,0.073260,0.033944,0.971917,-0.182927,-0.121951,0.182927,0.588000,0.294000,0.588000,0.000000,0.000000,0.000000,31.0473175,-103.5266418,884.890,0.000,6070,21
"COREYMAY3",98,36804,0,9487345,901.770020,52.730000,0.131258,0.071184,1.019780,0.000000,-0.121951,0.304878,0.588000,0.294000,0.588000,0.000000,0.000000,0.000000,31.0473175,-103.5266418,884.890,0.000,6070,21
"COREYMAY3",98,53506,0,9487355,901.739990,52.730000,0.091819,0.042979,0.984860,0.060976,-0.060976,0.243902,0.490000,0.294000,0.637000,0.000000,0.000000,0.000000,31.0473175,-103.5266418,884.890,0.000,6070,21
"COREYMAY3",98,56904,0,9487365,901.739990,52.730000,0.087790,0.052869,0.986935,0.000000,-0.060976,-0.060976,0.490000,0.294000,0.637000,0.000000,0.000000,0.000000,31.0473175,-103.5266418,884.890,0.000,6070,21
"COREYMAY3",98,22554,0,9487375,901.739990,52.730000,0.121490,0.055800,1.022222,-0.121951,-0.060976,-0.487805,0.588000,0.245000,0.539000,0.000000,0.000000,0.000000,31.0473175,-103.5266418,884.890,0.000,6070,21
"COREYMAY3",98,9428,0,9487385,901.739990,52.730000,0.082540,0.050549,0.979731,-0.182927,-0.060976,-0.487805,0.588000,0.343000,0.637000,0.000000,0.000000,0.000000,31.0473175,-103.5266418,884.890,0.000,6070,21
"COREYMAY3",98,19977,0,9487395,901.799988,52.730000,0.091697,0.031380,0.997436,0.000000,0.000000,-0.304878,0.539000,0.392000,0.539000,0.000000,0.000000,0.000000,31.0473175,-103.5266418,884.890,0.000,6070,21
"COREYMAY3",98,34721,0,9487405,901.799988,52.730000,0.124542,0.080464,1.003541,0.121951,0.000000,-0.121951,0.539000,0.294000,0.637000,0.000000,0.000000,0.000000,31.0473175,-103.5266418,884.890,0.000,6070,21
"COREYMAY3",98,4919,0,9487415,901.799988,52.730000,0.070085,0.043223,0.985348,0.121951,0.000000,-0.304878,0.490000,0.343000,0.588000,0.000000,0.000000,0.000000,31.0473175,-103.5266418,884.890,0.000,6070,21
"COREYMAY3",98,1521,0,9487425,901.799988,52.730000,0.108303,0.073871,1.003297,-0.060976,-0.060976,-0.670732,0.539000,0.441000,0.637000,0.000000,0.000000,0.000000,31.0473175,-103.5266418,884.890,0.000,6070,21
"COREYMAY3",98,49295,0,9487435,901.760010,52.730000,0.104029,0.058852,0.993773,-0.060976,0.000000,-0.426829,0.539000,0.343000,0.539000,0.000000,0.000000,0.000000,31.0473175,-103.5266418,884.890,0.000,6070,21
"COREYMAY3",98,46483,0,9487445,901.760010,52.730000,0.091941,0.035775,0.986813,0.060976,0.000000,-0.182927,0.588000,0.343000,0.588000,0.000000,0.000000,0.000000,31.0473175,-103.5266418,884.890,0.000,6070,21
"COREYMAY3",98,56128,0,9487455,901.760010,52.730000,0.106960,0.068376,1.003175,0.182927,0.060976,0.243902,0.539000,0.294000,0.539000,0.000000,0.000000,0.000000,31.0473175,-103.5266418,884.890,0.000,6070,21
"COREYMAY3",98,57939,0,9487465,901.760010,52.730000,0.094750,0.058608,0.986935,0.182927,0.121951,0.548781,0.588000,0.294000,0.490000,0.000000,0.000000,0.000000,31.0473175,-103.5266418,884.890,0.000,6070,21
"COREYMAY3",98,38068,0,9487475,901.760010,52.730000,0.109035,0.068376,0.997558,0.060976,0.121951,0.000000,0.637000,0.343000,0.588000,0.000000,0.000000,0.000000,31.0473175,-103.5266418,884.890,0.000,6070,21
"COREYMAY3",98,53355,0,9487485,901.760010,52.730000,0.091209,0.042247,0.999023,-0.060976,0.121951,-0.365854,0.539000,0.392000,0.588000,0.000000,0.000000,0.000000,31.0473175,-103.5266418,884.890,0.000,6070,21
"COREYMAY3",98,64512,0,9487495,901.760010,52.730000,0.098413,0.051282,0.988034,0.000000,0.060976,-0.365854,0.588000,0.392000,0.637000,0.000000,0.000000,0.000000,31.0473175,-103.5266418,884.890,0.000,6070,21
"COREYMAY3",98,13817,0,9487505,901.760010,52.730000,0.103907,0.056044,1.007326,0.060976,0.121951,-0.365854,0.539000,0.392000,0.637000,0.000000,0.000000,0.000000,31.0473175,-103.5266418,884.890,0.000,6070,21
"COREYMAY3",98,25623,0,9487515,901.770020,52.730000,0.097436,0.060317,0.986325,0.121951,0.243902,-0.121951,0.588000,0.294000,0.588000,0.000000,0.000000,0.000000,31.0473175,-103.5266418,884.890,0.000,6070,21
"COREYMAY3",98,45013,0,9487525,901.770020,52.730000,0.101954,0.065690,0.995604,0.182927,0.243902,-0.243902,0.490000,0.392000,0.490000,0.000000,0.000000,0.000000,31.0473175,-103.5266418,884.890,0.000,6070,21
"COREYMAY3",98,31058,0,9487535,901.770020,52.730000,0.097558,0.058852,1.010867,0.000000,0.182927,-0.853659,0.490000,0.343000,0.637000,0.000000,0.000000,0.000000,31.0473175,-103.5266418,884.890,0.000,6070,21
"COREYMAY3",98,61887,0,9487545,901.770020,52.730000,0.079976,0.059341,0.979609,-0.060976,0.182927,-0.731707,0.588000,0.294000,0.539000,0.000000,0.000000,0.000000,31.0473175,-103.5266418,884.890,0.000,6070,21
"COREYMAY3",98,57717,0,9487555,901.739990,52.730000,0.099145,0.049328,1.001954,0.000000,0.121951,-0.609756,0.588000,0.343000,0.539000,0.000000,0.000000,0.000000,31.0473175,-103.5266418,884.890,0.000,6070,21
"COREYMAY3",98,43606,0,9487565,901.739990,52.730000,0.096825,0.067277,0.999145,0.121951,0.182927,-0.365854,0.539000,0.343000,0.539000,0.000000,0.000000,0.000000,31.0473175,-103.5266418,884.890,0.000,6070,21
"COREYMAY3",98,60214,0,9487575,901.739990,52.730000,0.068620,0.046520,0.986203,0.121951,0.182927,-0.365854,0.539000,0.392000,0.539000,0.000000,0.000000,0.000000,31.0473175,-103.5266418,884.890,0.000,6070,21
"COREYMAY3",98,6220,0,9487585,901.739990,52.730000,0.110501,0.084615,1.010012,0.060976,0.121951,-0.670732,0.637000,0.294000,0.588000,0.000000,0.000000,0.000000,31.0473175,-103.5266418,884.880,0.000,6070,21
"COREYMAY3",98,51053,0,9487595,901.799988,52.730000,0.073138,0.050305,0.988767,-0.060976,0.121951,-0.792683,0.441000,0.343000,0.490000,0.000000,0.000000,0.000000,31.0473175,-103.5266418,884.880,0.000,6070,21
"COREYMAY3",98,11155,0,9487605,901.799988,52.730000,0.080586,0.049817,0.993162,-0.121951,0.121951,-0.426829,0.441000,0.343000,0.490000,0.000000,0.000000,0.000000,31.0473175,-103.5266418,884.880,0.000,6070,21
"COREYMAY3",98,58520,0,9487615,901.799988,52.730000,0.110867,0.069353,1.008059,0.000000,0.060976,0.121951,0.490000,0.294000,0.686000,0.000000,0.000000,0.000000,31.0473175,-103.5266418,884.880,0.000,6070,21
"COREYMAY3",98,53830,0,9487625,901.799988,52.730000,0.064347,0.070330,0.985226,0.121951,0.121951,0.060976,0.539000,0.343000,0.588000,0.000000,0.000000,0.000000,31.0473175,-103.5266418,884.880,0.000,6070,21
"COREYMAY3",98,5982,0,9487635,901.789978,52.730000,0.100122,0.073504,0.999878,0.000000,0.060976,-0.365854,0.441000,0.294000,0.588000,0.000000,0.000000,0.000000,31.0473175,-103.5266418,884.880,0.000,6070,21
"COREYMAY3",98,52861,0,9487645,901.789978,52.730000,0.091331,0.064225,1.001832,-0.121951,0.060976,-0.792683,0.539000,0.392000,0.490000,0.000000,0.000000,0.000000,31.0473175,-103.5266418,884.880,0.000,6070,21
"COREYMAY3",98,12379,0,9487655,901.789978,52.730000,0.068620,0.058486,0.982173,-0.243902,0.000000,-0.670732,0.588000,0.294000,0.441000,0.000000,0.000000,0.000000,31.0473175,-103.5266418,884.880,0.000,6070,21
"COREYMAY3",98,1673,0,9487665,901.789978,52.730000,0.086691,0.061050,1.001709,-0.121951,0.000000,0.000000,0.539000,0.343000,0.637000,0.000000,0.000000,0.000000,31.0473175,-103.5266418,884.880,0.000,6070,21
"COREYMAY3",98,26280,0,9487675,901.770020,52.730000,0.103541,0.076923,0.994139,0.000000,0.000000,0.548781,0.637000,0.343000,0.588000,0.000000,0.000000,0.000000,31.0473175,-103.5266418,884.880,0.000,6070,21
"COREYMAY3",98,63273,0,9487685,901.770020,52.730000,0.068376,0.059951,0.992552,0.000000,0.000000,0.548781,0.539000,0.343000,0.588000,0.000000,0.000000,0.000000,31.0473175,-103.5266418,884.880,0.000,6070,21
"COREYMAY3",98,63853,0,9487695,901.770020,52.730000,0.094505,0.066178,1.007082,-0.121951,-0.060976,0.365854,0.539000,0.343000,0.490000,0.000000,0.000000,0.000000,31.0473175,-103.5266418,884.880,0.000,6070,21
"COREYMAY3",98,60470,0,9487705,901.770020,52.730000,0.080708,0.053236,0.990476,-0.182927,-0.060976,0.182927,0.588000,0.343000,0.490000,0.000000,0.000000,0.000000,31.0473175,-103.5266418,884.880,0.000,6070,21
"COREYMAY3",98,8964,0,9487715,901.739990,52.730000,0.074481,0.058974,0.995482,-0.182927,-0.121951,0.243902,0.539000,0.294000,0.539000,0.000000,0.000000,0.000000,31.0473175,-103.5266418,884.880,0.000,6070,21
"COREYMAY3",98,14711,0,9487725,901.739990,52.730000,0.099512,0.048352,1.001709,-0.121951,-0.182927,0.731707,0.539000,0.294000,0.588000,0.000000,0.000000,0.000000,31.0473175,-103.5266418,884.880,0.000,6070,21
"COREYMAY3",98,18079,0,9487735,901.739990,52.730000,0.079853,0.069719,0.996581,-0.060976,-0.182927,0.548781,0.490000,0.343000,0.637000,0.000000,0.000000,0.000000,31.0473175,-103.5266418,884.880,0.000,6070,21
"COREYMAY3",98,59567,0,9487745,901.739990,52.730000,0.089255,0.068987,1.001099,-0.121951,-0.182927,0.182927,0.539000,0.245000,0.637000,0.000000,0.000000,0.000000,31.0473175,-103.5266418,884.880,0.000,6070,21
"COREYMAY3",98,61970,0,9487755,901.809998,52.730000,0.089744,0.067155,0.990354,-0.243902,-0.243902,-0.121951,0.490000,0.343000,0.539000,0.000000,0.000000,0.000000,31.0473175,-103.5266418,884.880,0.000,6070,21
"COREYMAY3",98,50984,0,9487765,901.809998,52.730000,0.105250,0.051282,0.998901,-0.304878,-0.243902,-0.243902,0.539000,0.245000,0.539000,0.000000,0.000000,0.000000,31.0473175,-103.5266418,884.880,0.000,6070,21
"COREYMAY3",98,34921,0,9487775,901.809998,52.730000,0.082173,0.054945,0.989744,-0.243902,-0.304878,0.121951,0.588000,0.294000,0.637000,0.000000,0.000000,0.000000,31.0473175,-103.5266418,884.880,0.000,6070,21
"COREYMAY3",98,4401,0,9487785,901.809998,52.730000,0.091453,0.077778,0.988278,-0.121951,-0.304878,0.304878,0.686000,0.343000,0.588000,0.000000,0.000000,0.000000,31.0473175,-103.5266418,884.880,0.000,6070,21
"COREYMAY3",98,55407,0,9487795,901.719971,52.730000,0.107204,0.058486,1.007936,-0.182927,-0.304878,0.060976,0.490000,0.343000,0.588000,0.000000,0.000000,0.000000,31.0473175,-103.5266418,884.880,0.000,6070,21
"COREYMAY3",98,21936,0,9487805,901.719971,52.730000,0.072650,0.061294,0.988278,-0.243902,-0.304878,-0.243902,0.490000,0.343000,0.588000,0.000000,0.000000,0.000000,31.0473175,-103.5266418,884.880,0.000,6070,21
"COREYMAY3",98,44148,0,9487815,901.719971,52.730000,0.097680,0.048474,0.995971,-0.304878,-0.304878,-0.365854,0.490000,0.343000,0.588000,0.000000,0.000000,0.000000,31.0473175,-103.5266418,884.880,0.000,6070,21
"COREYMAY3",98,13591,0,9487825,901.719971,52.730000,0.083394,0.076923,1.001587,-0.243902,-0.304878,-0.121951,0.539000,0.294000,0.490000,0.000000,0.000000,0.000000,31.0473175,-103.5266418,884.880,0.000,6070,21
"COREYMAY3",98,8070,0,9487835,901.750000,52.730000,0.087424,0.047009,0.984737,-0.182927,-0.365854,0.609756,0.588000,0.294000,0.539000,0.000000,0.000000,0.000000,31.0473175,-103.5266418,884.880,0.000,6070,21
"COREYMAY3",98,35737,0,9487845,901.750000,52.730000,0.099634,0.078755,1.008669,-0.182927,-0.365854,0.792683,0.588000,0.294000,0.539000,0.000000,0.000000,0.000000,31.0473175,-103.5266418,884.880,0.000,6070,21
"COREYMAY3",98,9319,0,9487855,901.750000,52.730000,0.094261,0.062637,1.001709,-0.243902,-0.304878,0.670732,0.588000,0.343000,0.637000,0.000000,0.000000,0.000000,31.0473175,-103.5266418,884.880,0.000,6070,21
"COREYMAY3",98,42673,0,9487865,901.750000,52.730000,0.073626,0.054579,0.978999,-0.365854,-0.304878,0.182927,0.490000,0.343000,0.490000,0.000000,0.000000,0.000000,31.0473175,-103.5266418,884.880,0.000,6070,21
"COREYMAY3",98,336,0,9487875,901.750000,52.730000,0.108303,0.075702,1.009158,-0.365854,-0.365854,-0.060976,0.539000,0.294000,0.539000,0.000000,0.000000,0.000000,31.0473175,-103.5266418,884.880,0.000,6070,21
"COREYMAY3",98,10464,0,9487885,901.750000,52.730000,0.108303,0.040659,0.980830,-0.304878,-0.365854,0.548781,0.490000,0.343000,0.588000,0.000000,0.000000,0.000000,31.0473175,-103.5266418,884.880,0.000,6070,21
"COREYMAY3",98,37167,0,9487895,901.750000,52.730000,0.064835,0.071062,0.986569,-0.182927,-0.365854,0.853659,0.539000,0.294000,0.490000,0.000000,0.000000,0.000000,31.0473175,-103.5266418,884.880,0.000,6070,21
"COREYMAY3",98,55926,0,9487905,901.750000,52.730000,0.122589,0.065690,1.012210,-0.243902,-0.426829,1.280488,0.637000,0.294000,0.539000,0.000000,0.000000,0.000000,31.0473175,-103.5266418,884.880,0.000,6070,21
"COREYMAY3",98,8558,0,9487915,901.729980,52.730000,0.095482,0.063370,0.987057,-0.304878,-0.304878,1.036585,0.686000,0.196000,0.588000,0.000000,0.000000,0.000000,31.0473175,-103.5266418,884.880,0.000,6070,21
"COREYMAY3",98,12044,0,9487925,901.729980,52.730000,0.101099,0.030037,0.992796,-0.365854,-0.243902,0.670732,0.637000,0.294000,0.539000,0.000000,0.000000,0.000000,31.0473175,-103.5266418,884.880,0.000,6070,21
"COREYMAY3",98,7932,0,9487935,901.729980,52.730000,0.093407,0.063736,1.003419,-0.304878,-0.243902,0.914634,0.588000,0.245000,0.539000,0.000000,0.000000,0.000000,31.0473175,-103.5266418,884.880,0.000,6070,21
"COREYMAY3",98,29882,0,9487945,901.729980,52.730000,0.108425,0.047619,0.990476,-0.243902,-0.243902,1.097561,0.588000,0.294000,0.490000,0.000000,0.000000,0.000000,31.0473175,-103.5266418,884.880,0.000,6070,21
"COREYMAY3",98,21838,0,9487955,901.700012,52.730000,0.084982,0.053724,0.993407,-0.243902,-0.243902,1.158537,0.490000,0.392000,0.637000,0.000000,0.000000,0.000000,31.0473175,-103.5266418,884.880,0.000,6070,21
"COREYMAY3",98,22140,0,9487965,901.700012,52.730000,0.129548,0.058608,0.997436,-0.304878,-0.304878,1.097561,0.441000,0.392000,0.539000,0.000000,0.000000,0.000000,31.0473175,-103.5266418,884.880,0.000,6070,21
"COREYMAY3",98,55284,0,9487975,901.700012,52.730000,0.094017,0.034554,0.993162,-0.365854,-0.243902,0.243902,0.490000,0.343000,0.588000,0.000000,0.000000,0.000000,31.0473175,-103.5266418,884.880,0.000,6070,21
"COREYMAY3",98,57821,0,9487985,901.700012,52.730000,0.087302,0.064713,0.992918,-0.304878,-0.182927,-0.121951,0.490000,0.392000,0.588000,0.000000,0.000000,0.000000,31.0473175,-103.5266418,884.880,0.000,6070,21
"COREYMAY3",98,52728,0,9487995,901.690002,52.730000,0.135897,0.047863,0.990232,-0.182927,-0.121951,0.182927,0.539000,0.294000,0.539000,0.000000,0.000000,0.000000,31.0473175,-103.5266418,884.880,0.000,6070,21
"COREYMAY3",98,10162,0,9488005,901.690002,52.730000,0.093529,0.056899,1.002686,-0.121951,-0.060976,-0.182927,0.588000,0.343000,0.588000,0.000000,0.000000,0.000000,31.0473175,-103.5266418,884.880,0.000,6070,21
"COREYMAY3",98,40163,0,9488015,901.690002,52.730000,0.094383,0.048230,0.989255,-0.243902,-0.121951,-0.060976,0.539000,0.343000,0.588000,0.000000,0.000000,0.000000,31.0473175,-103.5266418,884.880,0.000,6070,21
"COREYMAY3",98,14340,0,9488025,901.690002,52.730000,0.103541,0.058852,0.998168,-0.304878,-0.182927,-0.548781,0.539000,0.343000,0.539000,0.000000,0.000000,0.000000,31.0473175,-103.5266418,884.880,0.000,6070,21
"COREYMAY3",98,834,0,9488035,901.780029,52.730000,0.120024,0.048352,1.001954,-0.304878,-0.182927,-1.097561,0.539000,0.343000,0.588000,0.000000,0.000000,0.000000,31.0473175,-103.5266418,884.880,0.000,6070,21
"COREYMAY3",98,47396,0,9488045,901.780029,52.730000,0.067399,0.027228,0.985226,-0.182927,-0.060976,-0.487805,0.539000,0.392000,0.637000,0.000000,0.000000,0.000000,31.0473175,-103.5266418,884.880,0.000,6070,21
"COREYMAY3",98,35386,0,9488055,901.780029,52.730000,0.106838,0.068498,1.001343,-0.060976,-0.060976,0.121951,0.490000,0.294000,0.441000,0.000000,0.000000,0.000000,31.0473175,-103.5266418,884.880,0.000,6070,21
"COREYMAY3",98,44641,0,9488065,901.780029,52.730000,0.104884,0.051282,1.005006,0.000000,0.000000,0.304878,0.588000,0.294000,0.588000,0.000000,0.000000,0.000000,31.0473175,-103.5266418,884.880,0.000,6070,21
"COREYMAY3",98,11819,0,9488075,901.700012,52.730000,0.085958,0.065812,0.973138,-0.060976,0.000000,0.304878,0.539000,0.343000,0.637000,0.000000,0.000000,0.000000,31.0473175,-103.5266418,884.880,0.000,6070,21
"COREYMAY3",98,11802,0,9488085,901.700012,52.730000,0.127595,0.043223,1.005494,-0.121951,0.000000,-0.243902,0.637000,0.343000,0.588000,0.000000,0.000000,0.000000,31.0473175,-103.5266418,884.880,0.000,6070,21
"COREYMAY3",98,61552,0,9488095,901.700012,52.730000,0.077900,0.061538,1.002442,-0.060976,-0.060976,-0.426829,0.637000,0.343000,0.588000,0.000000,0.000000,0.000000,31.0473175,-103.5266418,884.880,0.000,6070,21
"COREYMAY3",98,42713,0,9488105,901.700012,52.730000,0.100366,0.047619,0.975580,0.000000,0.000000,-0.060976,0.637000,0.245000,0.588000,0.000000,0.000000,0.000000,31.0473175,-103.5266418,884.880,0.000,6070,21
"COREYMAY3",98,58572,0,9488115,901.719971,52.730000,0.112943,0.068254,1.014652,0.000000,0.000000,0.000000,0.637000,0.441000,0.637000,0.000000,0.000000,0.000000,31.0473175,-103.5266418,884.880,0.000,6070,21
"COREYMAY3",98,28528,0,9488125,901.719971,52.730000,0.101221,0.048962,0.990965,0.000000,0.121951,-0.060976,0.490000,0.343000,0.686000,0.000000,0.000000,0.000000,31.0473175,-103.5266418,884.880,0.000,6070,21
"COREYMAY3",98,17945,0,9488135,901.719971,52.730000,0.069475,0.043468,0.983516,-0.060976,0.060976,-0.548781,0.539000,0.343000,0.588000,0.000000,0.000000,0.000000,31.0473175,-103.5266418,884.880,0.000,6070,21
"COREYMAY3",98,35002,0,9488145,901.719971,52.730000,0.123932,0.079609,1.013797,-0.060976,0.060976,-0.670732,0.588000,0.343000,0.588000,0.000000,0.000000,0.000000,31.0473175,-103.5266418,884.880,0.000,6070,21
"COREYMAY3",98,26237,0,9488155,901.750000,52.730000,0.097070,0.033333,0.983272,0.000000,0.000000,-0.121951,0.588000,0.294000,0.588000,0.000000,0.000000,0.000000,31.0473175,-103.5266418,884.880,0.000,6070,21
"COREYMAY3",98,40289,0,9488165,901.750000,52.730000,0.080220,0.054579,0.998168,0.060976,0.060976,0.000000,0.441000,0.294000,0.490000,0.000000,0.000000,0.000000,31.0473175,-103.5266418,884.880,0.000,6070,21
"COREYMAY3",98,39730,0,9488175,901.750000,52.730000,0.110867,0.058364,1.010623,0.121951,0.121951,0.304878,0.490000,0.294000,0.539000,0.000000,0.000000,0.000000,31.0473175,-103.5266418,884.880,0.000,6070,21
"COREYMAY3",98,49668,0,9488185,901.750000,52.730000,0.086081,0.057265,0.979609,0.060976,0.182927,-0.121951,0.539000,0.294000,0.637000,0.000000,0.000000,0.000000,31.0473175,-103.5266418,884.880,0.000,6070,21
"COREYMAY3",98,57413,0,9488195,901.679993,52.730000,0.105983,0.051282,0.999634,0.121951,0.060976,-0.487805,0.588000,0.343000,0.441000,0.000000,0.000000,0.000000,31.0473175,-103.5266418,884.880,0.000,6070,21
"COREYMAY3",98,56691,0,9488205,901.679993,52.730000,0.097802,0.053480,0.998535,0.121951,0.060976,-0.060976,0.637000,0.294000,0.539000,0.000000,0.000000,0.000000,31.0473175,-103.5266418,884.880,0.000,6070,21
"COREYMAY3",98,34693,0,9488215,901.679993,52.730000,0.085470,0.057143,0.984737,0.121951,0.060976,0.243902,0.539000,0.392000,0.637000,0.000000,0.000000,0.000000,31.0473175,-103.5266418,884.880,0.000,6070,21
"COREYMAY3",98,27701,0,9488225,901.679993,52.730000,0.097924,0.057753,1.008303,0.121951,0.121951,0.121951,0.588000,0.294000,0.539000,0.000000,0.000000,0.000000,31.0473175,-103.5266418,884.880,0.000,6070,21
"COREYMAY3",98,41506,0,9488235,901.729980,52.730000,0.110867,0.077900,0.988400,0.121951,0.121951,-0.060976,0.539000,0.294000,0.588000,0.000000,0.000000,0.000000,31.0473175,-103.5266418,884.880,0.000,6070,21
"COREYMAY3",98,46629,0,9488245,901.729980,52.730000,0.099390,0.039072,0.997924,0.060976,0.182927,-0.975610,0.490000,0.294000,0.588000,0.000000,0.000000,0.000000,31.0473175,-103.5266418,884.880,0.000,6070,21
"COREYMAY3",98,24873,0,9488255,901.729980,52.730000,0.071306,0.074847,0.994139,0.060976,0.060976,-1.158537,0.539000,0.343000,0.588000,0.000000,0.000000,0.000000,31.0473175,-103.5266418,884.880,0.000,6070,21
"COREYMAY3",98,36103,0,9488265,901.729980,52.730000,0.111844,0.052747,0.989744,0.060976,0.000000,-0.548781,0.539000,0.343000,0.539000,0.000000,0.000000,0.000000,31.0473175,-103.5266418,884.880,0.000,6070,21
"COREYMAY3",98,64057,0,9488275,901.760010,52.730000,0.095238,0.068254,1.009158,0.060976,0.060976,-0.670732,0.539000,0.343000,0.686000,0.000000,0.000000,0.000000,31.0473175,-103.5266418,884.880,0.000,6070,21
"COREYMAY3",98,2362,0,9488285,901.760010,52.730000,0.079731,0.045421,0.982295,0.000000,0.121951,-0.304878,0.441000,0.343000,0.539000,0.000000,0.000000,0.000000,31.0473175,-103.5266418,884.880,0.000,6070,21
"COREYMAY3",98,56183,0,9488295,901.760010,52.730000,0.088889,0.070696,0.995604,0.060976,0.121951,-0.487805,0.490000,0.294000,0.686000,0.000000,0.000000,0.000000,31.0473175,-103.5266418,884.880,0.000,6070,21
"COREYMAY3",98,17477,0,9488305,901.760010,52.730000,0.112576,0.072405,1.005128,0.000000,0.121951,-0.853659,0.539000,0.196000,0.588000,0.000000,0.000000,0.000000,31.0473175,-103.5266418,884.880,0.000,6070,21
"COREYMAY3",98,64440,0,9488315,901.739990,52.730000,0.075702,0.047253,0.970085,0.000000,0.060976,-0.121951,0.539000,0.343000,0.539000,0.000000,0.000000,0.000000,31.0473175,-103.5266418,884.880,0.000,6070,21
"COREYMAY3",98,5241,0,9488325,901.739990,52.730000,0.109402,0.080830,1.003785,0.060976,0.000000,0.000000,0.441000,0.343000,0.637000,0.000000,0.000000,0.000000,31.0473175,-103.5266418,884.880,0.000,6070,21
"COREYMAY3",98,8091,0,9488335,901.739990,52.730000,0.087668,0.056777,1.009280,0.000000,0.000000,-0.182927,0.441000,0.343000,0.637000,0.000000,0.000000,0.000000,31.0473175,-103.5266418,884.880,0.000,6070,21
"COREYMAY3",98,293,0,9488345,901.739990,52.730000,0.069841,0.066300,0.975824,-0.060976,0.060976,-0.304878,0.441000,0.392000,0.539000,0.000000,0.000000,0.000000,31.0473175,-103.5266418,884.880,0.000,6070,21
"COREYMAY3",98,32579,0,9488355,901.729980,52.730000,0.122711,0.066056,1.010256,-0.121951,0.000000,-0.670732,0.539000,0.294000,0.588000,0.000000,0.000000,0.000000,31.0473175,-103.5266418,884.880,0.000,6070,21
"COREYMAY3",98,31336,0,9488365,901.729980,52.730000,0.070574,0.056899,0.991575,-0.121951,0.000000,-0.609756,0.490000,0.441000,0.588000,0.000000,0.000000,0.000000,31.0473175,-103.5266418,884.880,0.000,6070,21
"COREYMAY3",98,7173,0,9488375,901.729980,52.730000,0.077778,0.065446,0.984737,-0.121951,-0.060976,-0.182927,0.637000,0.343000,0.490000,0.000000,0.000000,0.000000,31.0473175,-103.5266418,884.880,0.000,6070,21
"COREYMAY3",98,64114,0,9488385,901.729980,52.730000,0.102198,0.073138,1.019414,-0.121951,-0.121951,-0.182927,0.588000,0.343000,0.539000,0.000000,0.000000,0.000000,31.0473175,-103.5266418,884.880,0.000,6070,21
"COREYMAY3",98,20430,0,9488395,901.739990,52.730000,0.073260,0.068987,0.980342,-0.182927,-0.060976,-0.243902,0.490000,0.343000,0.588000,0.000000,0.000000,0.000000,31.0473175,-103.5266418,884.880,0.000,6070,21
"COREYMAY3",98,8864,0,9488405,901.739990,52.730000,0.088400,0.044811,1.004884,-0.243902,-0.060976,-0.487805,0.490000,0.343000,0.588000,0.000000,0.000000,0.000000,31.0473175,-103.5266418,884.880,0.000,6070,21
"COREYMAY3",98,44022,0,9488415,901.739990,52.730000,0.094872,0.096337,0.998901,-0.243902,-0.121951,-0.121951,0.490000,0.343000,0.539000,0.000000,0.000000,0.000000,31.0473175,-103.5266418,884.880,0.000,6070,21
"COREYMAY3",98,40504,0,9488425,901.739990,52.730000,0.077289,0.042491,0.982784,-0.243902,-0.182927,0.304878,0.588000,0.392000,0.539000,0.000000,0.000000,0.000000,31.0473175,-103.5266418,884.880,0.000,6070,21
"COREYMAY3",98,51488,0,9488435,901.809998,52.730000,0.095116,0.085226,1.007936,-0.182927,-0.243902,0.487805,0.588000,0.294000,0.539000,0.000000,0.000000,0.000000,31.0473175,-103.5266418,884.880,0.000,6070,21
"COREYMAY3",98,25136,0,9488445,901.809998,52.730000,0.091331,0.055189,0.991087,-0.243902,-0.182927,0.853659,0.588000,0.294000,0.588000,0.000000,0.000000,0.000000,31.0473175,-103.5266418,884.880,0.000,6070,21
"COREYMAY3",98,34228,0,9488455,901.809998,52.730000,0.074847,0.063248,0.988767,-0.304878,-0.182927,0.609756,0.490000,0.294000,0.539000,0.000000,0.000000,0.000000,31.0473175,-103.5266418,884.880,0.000,6070,21
"COREYMAY3",98,2776,0,9488465,901.809998,52.730000,0.109035,0.067277,1.006838,-0.304878,-0.243902,0.426829,0.441000,0.343000,0.637000,0.000000,0.000000,0.000000,31.0473175,-103.5266418,884.880,0.000,6070,21
"COREYMAY3",98,38858,0,9488475,901.789978,52.730000,0.078510,0.050672,0.984249,-0.304878,-0.304878,0.731707,0.490000,0.294000,0.539000,0.000000,0.000000,0.000000,31.0473175,-103.5266418,884.880,0.000,6070,21
"COREYMAY3",98,31949,0,9488485,901.789978,52.730000,0.094261,0.066911,1.005739,-0.304878,-0.304878,0.487805,0.588000,0.294000,0.588000,0.000000,0.000000,0.000000,31.0473175,-103.5266418,884.880,0.000,6070,21
"COREYMAY3",98,35303,0,9488495,901.789978,52.730000,0.080098,0.042613,1.006593,-0.304878,-0.304878,0.487805,0.441000,0.294000,0.539000,0.000000,0.000000,0.000000,31.0473175,-103.5266418,884.880,0.000,6070,21
"COREYMAY3",98,24890,0,9488505,901.789978,52.730000,0.091209,0.064347,0.980830,-0.365854,-0.243902,0.365854,0.588000,0.245000,0.539000,0.000000,0.000000,0.000000,31.0473175,-103.5266418,884.880,0.000,6070,21
"COREYMAY3",98,20445,0,9488515,901.729980,52.730000,0.093651,0.057265,1.008059,-0.365854,-0.304878,0.060976,0.588000,0.392000,0.588000,0.000000,0.000000,0.000000,31.0473175,-103.5266418,884.880,0.000,6070,21
"COREYMAY3",98,16728,0,9488525,901.729980,52.730000,0.088156,0.054945,0.986447,-0.365854,-0.365854,0.365854,0.539000,0.343000,0.588000,0.000000,0.000000,0.000000,31.0473175,-103.5266418,884.880,0.000,6070,21
"COREYMAY3",98,48497,0,9488535,901.729980,52.730000,0.088889,0.052991,0.999389,-0.365854,-0.426829,0.548781,0.637000,0.343000,0.588000,0.000000,0.000000,0.000000,31.0473175,-103.5266418,884.880,0.000,6070,21
"COREYMAY3",98,28222,0,9488545,901.729980,52.730000,0.084371,0.059707,1.010134,-0.365854,-0.365854,0.426829,0.539000,0.294000,0.588000,0.000000,0.000000,0.000000,31.0473175,-103.5266418,884.880,0.000,6070,21
"COREYMAY3",98,33459,0,9488555,901.700012,52.730000,0.091331,0.056532,0.977900,-0.365854,-0.243902,0.792683,0.539000,0.343000,0.588000,0.000000,0.000000,0.000000,31.0473175,-103.5266418,884.880,0.000,6070,21
"COREYMAY3",98,19715,0,9488565,901.700012,52.730000,0.110379,0.056899,1.006471,-0.365854,-0.304878,0.243902,0.490000,0.392000,0.539000,0.000000,0.000000,0.000000,31.0473175,-103.5266418,884.880,0.000,6070,21
"COREYMAY3",98,51080,0,9488575,901.700012,52.730000,0.096825,0.065568,0.997070,-0.304878,-0.365854,0.365854,0.441000,0.392000,0.539000,0.000000,0.000000,0.000000,31.0473175,-103.5266418,884.880,0.000,6070,21
"COREYMAY3",98,11723,0,9488585,901.700012,52.730000,0.067766,0.030037,0.980342,-0.243902,-0.365854,0.731707,0.441000,0.392000,0.539000,0.000000,0.000000,0.000000,31.0473175,-103.5266418,884.880,0.000,6070,21
"COREYMAY3",98,61498,0,9488595,901.700012,52.730000,0.114652,0.076801,1.017949,-0.304878,-0.365854,0.792683,0.539000,0.343000,0.490000,0.000000,0.000000,0.000000,31.0473175,-103.5266418,884.880,0.000,6070,21
"COREYMAY3",98,20966,0,9488605,901.700012,52.730000,0.088278,0.042491,0.985104,-0.304878,-0.304878,0.975610,0.490000,0.245000,0.441000,0.000000,0.000000,0.000000,31.0473175,-103.5266418,884.880,0.000,6070,21
"COREYMAY3",98,46091,0,9488615,901.700012,52.730000,0.090598,0.045421,0.981929,-0.243902,-0.304878,0.853659,0.588000,0.245000,0.539000,0.000000,0.000000,0.000000,31.0473175,-103.5266418,884.880,0.000,6070,21
"COREYMAY3",98,52889,0,9488625,901.700012,52.730000,0.118071,0.071551,1.015995,-0.182927,-0.365854,0.304878,0.588000,0.294000,0.588000,0.000000,0.000000,0.000000,31.0473175,-103.5266418,884.880,0.000,6070,21
"COREYMAY3",98,3396,0,9488635,901.710022,52.730000,0.075214,0.049573,0.983639,-0.243902,-0.365854,0.243902,0.441000,0.392000,0.637000,0.000000,0.000000,0.000000,31.0473175,-103.5266418,884.880,0.000,6070,21
"COREYMAY3",98,29498,0,9488645,901.710022,52.730000,0.115385,0.047131,0.994017,-0.304878,-0.365854,0.426829,0.490000,0.343000,0.539000,0.000000,0.000000,0.000000,31.0473175,-103.5266418,884.880,0.000,6070,21
"COREYMAY3",98,2027,0,9488655,901.710022,52.730000,0.098901,0.057143,1.004396,-0.243902,-0.304878,0.426829,0.539000,0.392000,0.686000,0.000000,0.000000,0.000000,31.0473175,-103.5266418,884.880,0.000,6070,21
"COREYMAY3",98,30091,0,9488665,901.710022,52.730000,0.096459,0.042735,0.977778,-0.182927,-0.243902,0.365854,0.490000,0.294000,0.539000,0.000000,0.000000,0.000000,31.0473175,-103.5266418,884.880,0.000,6070,21
"COREYMAY3",98,50577,0,9488675,901.739990,52.730000,0.096947,0.063736,1.004274,-0.121951,-0.243902,0.000000,0.637000,0.294000,0.539000,0.000000,0.000000,0.000000,31.0473175,-103.5266418,884.880,0.000,6070,21
"COREYMAY3",98,34936,0,9488685,901.739990,52.730000,0.118926,0.058608,0.991209,-0.182927,-0.304878,0.182927,0.539000,0.294000,0.588000,0.000000,0.000000,0.000000,31.0473175,-103.5266418,884.880,0.000,6070,21
"COREYMAY3",98,36137,0,9488695,901.739990,52.730000,0.087179,0.025397,0.999145,-0.182927,-0.243902,0.182927,0.637000,0.245000,0.539000,0.000000,0.000000,0.000000,31.0473175,-103.5266418,884.880,0.000,6070,21
"COREYMAY3",98,37743,0,9488705,901.739990,52.730000,0.098657,0.050061,1.010745,-0.121951,-0.121951,0.304878,0.588000,0.294000,0.686000,0.000000,0.000000,0.000000,31.0473175,-103.5266418,884.880,0.000,6070,21
"COREYMAY3",98,46376,0,9488715,901.750000,52.730000,0.107570,0.057875,0.977656,-0.060976,0.000000,0.670732,0.539000,0.294000,0.392000,0.000000,0.000000,0.000000,31.0473175,-103.5266418,884.880,0.000,6070,21
"COREYMAY3",98,39331,0,9488725,901.750000,52.730000,0.105617,0.046642,1.001832,0.000000,-0.060976,0.000000,0.588000,0.294000,0.588000,0.000000,0.000000,0.000000,31.0473175,-103.5266418,884.880,0.000,6070,21
"COREYMAY3",98,11222,0,9488735,901.750000,52.730000,0.115507,0.049206,0.993162,-0.060976,-0.121951,-0.060976,0.588000,0.343000,0.686000,0.000000,0.000000,0.000000,31.0473175,-103.5266418,884.880,0.000,6070,21
"COREYMAY3",98,23121,0,9488745,901.750000,52.730000,0.075946,0.044689,0.989744,-0.182927,-0.121951,0.000000,0.539000,0.294000,0.490000,0.000000,0.000000,0.000000,31.0473175,-103.5266418,884.880,0.000,6070,21
"COREYMAY3",98,22036,0,9488755,901.719971,52.730000,0.131868,0.054090,1.007204,-0.121951,-0.060976,-0.243902,0.637000,0.294000,0.539000,0.000000,0.000000,0.000000,31.0473175,-103.5266418,884.880,0.000,6070,21
"COREYMAY3",98,44887,0,9488765,901.719971,52.730000,0.088523,0.055433,0.989011,-0.060976,0.060976,-0.243902,0.539000,0.294000,0.588000,0.000000,0.000000,0.000000,31.0473175,-103.5266418,884.880,0.000,6070,21
"COREYMAY3",98,8205,0,9488775,901.719971,52.730000,0.122344,0.055678,0.988278,0.060976,0.060976,-0.548781,0.637000,0.294000,0.637000,0.000000,0.000000,0.000000,31.0473175,-103.5266418,884.880,0.000,6070,21
"COREYMAY3",98,21414,0,9488785,901.719971,52.730000,0.100488,0.064103,1.002198,0.000000,0.060976,-1.036585,0.588000,0.294000,0.588000,0.000000,0.000000,0.000000,31.0473175,-103.5266418,884.880,0.000,6070,21
"COREYMAY3",98,58426,0,9488795,901.750000,52.730000,0.088156,0.066422,0.979121,-0.121951,-0.060976,-1.097561,0.588000,0.294000,0.588000,0.000000,0.000000,0.000000,31.0473175,-103.5266418,884.880,0.000,6070,21
"COREYMAY3",98,60463,0,9488805,901.750000,52.730000,0.117216,0.057387,1.004396,-0.060976,-0.060976,-0.914634,0.539000,0.392000,0.588000,0.000000,0.000000,0.000000,31.0473175,-103.5266418,884.880,0.000,6070,21
"COREYMAY3",98,19739,0,9488815,901.750000,52.730000,0.093895,0.051038,0.991209,-0.060976,0.060976,-0.670732,0.539000,0.294000,0.490000,0.000000,0.000000,0.000000,31.0473175,-103.5266418,884.880,0.000,6070,21
"COREYMAY3",98,15824,0,9488825,901.750000,52.730000,0.087057,0.053968,0.980708,0.060976,0.182927,-0.304878,0.539000,0.294000,0.490000,0.000000,0.000000,0.000000,31.0473175,-103.5266418,884.880,0.000,6070,21
"COREYMAY3",98,47011,0,9488835,901.700012,52.730000,0.098779,0.078144,1.007936,0.121951,0.121951,-0.365854,0.588000,0.294000,0.637000,0.000000,0.000000,0.000000,31.0473175,-103.5266418,884.880,0.000,6070,21
"COREYMAY3",98,21484,0,9488845,901.700012,52.730000,0.118437,0.060806,0.981441,0.000000,0.060976,0.060976,0.637000,0.343000,0.588000,0.000000,0.000000,0.000000,31.0473175,-103.5266418,884.880,0.000,6070,21
"COREYMAY3",98,14418,0,9488855,901.700012,52.730000,0.072650,0.052381,0.991575,-0.060976,0.060976,0.304878,0.490000,0.294000,0.490000,0.000000,0.000000,0.000000,31.0473175,-103.5266418,884.880,0.000,6070,21
"COREYMAY3",98,27389,0,9488865,901.700012,52.730000,0.108791,0.053480,1.014652,-0.060976,0.121951,0.609756,0.539000,0.343000,0.539000,0.000000,0.000000,0.000000,31.0473175,-103.5266418,884.880,0.000,6070,21
"COREYMAY3",98,2288,0,9488875,901.760010,52.730000,0.098657,0.052137,0.982784,0.000000,0.182927,0.670732,0.539000,0.294000,0.539000,0.000000,0.000000,0.000000,31.0473175,-103.5266418,884.880,0.000,6070,21
"COREYMAY3",98,25371,0,9488885,901.760010,52.730000,0.097924,0.067888,0.995971,0.060976,0.243902,0.060976,0.588000,0.294000,0.637000,0.000000,0.000000,0.000000,31.0473175,-103.5266418,884.880,0.000,6070,21
"COREYMAY3",98,51809,0,9488895,901.760010,52.730000,0.110623,0.041758,0.996825,0.000000,0.182927,-0.182927,0.539000,0.294000,0.686000,0.000000,0.000000,0.000000,31.0473175,-103.5266418,884.880,0.000,6070,21
"COREYMAY3",98,24739,0,9488905,901.760010,52.730000,0.077656,0.051770,1.000855,-0.060976,0.121951,-0.243902,0.490000,0.294000,0.588000,0.000000,0.000000,0.000000,31.0473175,-103.5266418,884.880,0.000,6070,21
"COREYMAY3",98,28131,0,9488915,901.719971,52.720001,0.094139,0.052015,0.998657,0.000000,0.121951,0.000000,0.588000,0.343000,0.637000,0.000000,0.000000,0.000000,31.0473175,-103.5266418,884.880,0.000,6070,21
"COREYMAY3",98,19552,0,9488925,901.719971,52.720001,0.085348,0.042491,0.990110,0.000000,0.182927,0.243902,0.588000,0.245000,0.490000,0.000000,0.000000,0.000000,31.0473175,-103.5266418,884.880,0.000,6070,21
"COREYMAY3",98,15814,0,9488935,901.719971,52.720001,0.132234,0.060317,1.004396,0.060976,0.182927,-0.243902,0.686000,0.245000,0.637000,0.000000,0.000000,0.000000,31.0473175,-103.5266418,884.880,0.000,6070,21
"COREYMAY3",98,16840,0,9488945,901.719971,52.720001,0.076557,0.058852,0.994872,0.060976,0.243902,-0.792683,0.588000,0.245000,0.637000,0.000000,0.000000,0.000000,31.0473175,-103.5266418,884.880,0.000,6070,21
"COREYMAY3",98,64149,0,9488955,901.760010,52.730000,0.082784,0.046154,0.984493,0.000000,0.182927,-0.731707,0.539000,0.294000,0.539000,0.000000,0.000000,0.000000,31.0473175,-103.5266418,884.880,0.000,6070,21
"COREYMAY3",98,4861,0,9488965,901.760010,52.730000,0.115263,0.062271,1.015507,0.000000,0.121951,-0.487805,0.539000,0.343000,0.588000,0.000000,0.000000,0.000000,31.0473175,-103.5266418,884.880,0.000,6070,21
"COREYMAY3",98,65251,0,9488975,901.760010,52.730000,0.076313,0.054701,0.986325,0.060976,0.121951,-0.182927,0.539000,0.343000,0.588000,0.000000,0.000000,0.000000,31.0473175,-103.5266418,884.880,0.000,6070,21
"COREYMAY3",98,2622,0,9488985,901.760010,52.730000,0.104640,0.051770,0.985104,0.121951,0.121951,-0.243902,0.490000,0.294000,0.588000,0.000000,0.000000,0.000000,31.0473175,-103.5266418,884.880,0.000,6070,21
"COREYMAY3",98,57475,0,9488995,901.789978,52.730000,0.111355,0.090598,1.013797,0.121951,0.121951,-0.731707,0.539000,0.392000,0.588000,0.000000,0.000000,0.000000,31.0473175,-103.5266418,884.880,0.000,6070,21
"COREYMAY3",98,15757,0,9489005,901.789978,52.730000,0.081319,0.051893,0.988523,0.060976,0.060976,-0.975610,0.588000,0.343000,0.588000,0.000000,0.000000,0.000000,31.0473175,-103.5266418,884.880,0.000,6070,21
"COREYMAY3",98,56848,0,9489015,901.789978,52.730000,0.087302,0.053236,0.991697,0.000000,0.060976,-0.731707,0.539000,0.392000,0.539000,0.000000,0.000000,0.000000,31.0473175,-103.5266418,884.880,0.000,6070,21
"COREYMAY3",98,53747,0,9489025,901.789978,52.730000,0.103297,0.063858,1.003663,0.000000,0.121951,-0.548781,0.588000,0.343000,0.588000,0.000000,0.000000,0.000000,31.0473175,-103.5266418,884.880,0.000,6070,21
"COREYMAY3",98,22409,0,9489035,901.760010,52.720001,0.075092,0.057509,0.984860,0.000000,0.121951,-0.792683,0.490000,0.294000,0.539000,0.000000,0.000000,0.000000,31.0473175,-103.5266418,884.880,0.000,6070,21
"COREYMAY3",98,35042,0,9489045,901.760010,52.720001,0.073626,0.070818,0.995971,0.000000,0.060976,-0.853659,0.539000,0.343000,0.588000,0.000000,0.000000,0.000000,31.0473175,-103.5266418,884.880,0.000,6070,21
"COREYMAY3",98,39540,0,9489055,901.760010,52.720001,0.123565,0.079121,0.992674,0.000000,-0.060976,-0.914634,0.490000,0.294000,0.539000,0.000000,0.000000,0.000000,31.0473175,-103.5266418,884.880,0.000,6070,21
"COREYMAY3",98,65067,0,9489065,901.760010,52.720001,0.060073,0.060684,1.007814,-0.060976,-0.121951,-1.036585,0.490000,0.294000,0.539000,0.000000,0.000000,0.000000,31.0473175,-103.5266418,884.880,0.000,6070,21
"COREYMAY3",98,661,0,9489075,901.750000,52.730000,0.079731,0.050794,0.993162,-0.121951,-0.121951,-0.548781,0.490000,0.294000,0.588000,0.000000,0.000000,0.000000,31.0473175,-103.5266418,884.880,0.000,6070,21
"COREYMAY3",98,46251,0,9489085,901.750000,52.730000,0.088156,0.073871,0.990842,-0.060976,0.000000,-0.304878,0.490000,0.343000,0.784000,0.000000,0.000000,0.000000,31.0473175,-103.5266418,884.880,0.000,6070,21
"COREYMAY3",98,42710,0,9489095,901.750000,52.730000,0.094505,0.076557,0.997558,0.000000,0.000000,-0.243902,0.539000,0.294000,0.441000,0.000000,0.000000,0.000000,31.0473175,-103.5266418,884.880,0.000,6070,21
"COREYMAY3",98,43099,0,9489105,901.750000,52.730000,0.074359,0.056777,0.985104,-0.060976,-0.121951,0.182927,0.490000,0.392000,0.490000,0.000000,0.000000,0.000000,31.0473175,-103.5266418,884.880,0.000,6070,21
"COREYMAY3",98,49161,0,9489115,901.719971,52.730000,0.098901,0.085592,1.003785,-0.182927,-0.243902,0.548781,0.490000,0.392000,0.637000,0.000000,0.000000,0.000000,31.0473175,-103.5266418,884.880,0.000,6070,21
"COREYMAY3",98,50443,0,9489125,901.719971,52.730000,0.063004,0.047863,1.010134,-0.182927,-0.182927,0.609756,0.588000,0.343000,0.588000,0.000000,0.000000,0.000000,31.0473175,-103.5266418,884.880,0.000,6070,21
"COREYMAY3",98,18670,0,9489135,901.719971,52.730000,0.079365,0.055556,0.982295,-0.121951,-0.121951,0.731707,0.637000,0.294000,0.686000,0.000000,0.000000,0.000000,31.0473175,-103.5266418,884.880,0.000,6070,21
"COREYMAY3",98,12176,0,9489145,901.719971,52.730000,0.115385,0.063980,1.006960,-0.060976,-0.121951,0.731707,0.539000,0.294000,0.588000,0.000000,0.000000,0.000000,31.0473175,-103.5266418,884.880,0.000,6070,21
"COREYMAY3",98,19381,0,9489155,901.760010,52.730000,0.083639,0.073871,0.986081,-0.060976,-0.182927,0.609756,0.490000,0.343000,0.637000,0.000000,0.000000,0.000000,31.0473175,-103.5266418,884.880,0.000,6070,21
"COREYMAY3",98,65493,0,9489165,901.760010,52.730000,0.075946,0.057631,0.989255,-0.182927,-0.365854,0.426829,0.490000,0.343000,0.539000,0.000000,0.000000,0.000000,31.0473175,-103.5266418,884.880,0.000,6070,21
"COREYMAY3",98,61650,0,9489175,901.760010,52.730000,0.110745,0.063980,1.015751,-0.304878,-0.365854,0.304878,0.441000,0.343000,0.637000,0.000000,0.000000,0.000000,31.0473175,-103.5266418,884.880,0.000,6070,21
"COREYMAY3",98,37788,0,9489185,901.760010,52.730000,0.076190,0.055922,0.984493,-0.304878,-0.304878,0.304878,0.539000,0.343000,0.539000,0.000000,0.000000,0.000000,31.0473175,-103.5266418,884.880,0.000,6070,21
"COREYMAY3",98,58976,0,9489195,901.760010,52.730000,0.087302,0.043346,0.989255,-0.243902,-0.243902,0.182927,0.588000,0.392000,0.588000,0.000000,0.000000,0.000000,31.0473175,-103.5266418,884.880,0.000,6070,21
"COREYMAY3",98,24611,0,9489205,901.760010,52.730000,0.117094,0.088523,1.004396,-0.121951,-0.243902,0.487805,0.588000,0.294000,0.490000,0.000000,0.000000,0.000000,31.0473175,-103.5266418,884.880,0.000,6070,21
"COREYMAY3",98,57737,0,9489215,901.760010,52.730000,0.086813,0.063370,0.981929,-0.182927,-0.243902,0.182927,0.490000,0.343000,0.686000,0.000000,0.000000,0.000000,31.0473175,-103.5266418,884.880,0.000,6070,21
"COREYMAY3",98,28233,0,9489225,901.760010,52.730000,0.091331,0.059463,1.003052,-0.304878,-0.365854,-0.121951,0.588000,0.294000,0.539000,0.000000,0.000000,0.000000,31.0473175,-103.5266418,884.880,0.000,6070,21
"COREYMAY3",98,2741,0,9489235,901.760010,52.730000,0.100611,0.042247,0.998657,-0.426829,-0.365854,0.182927,0.539000,0.294000,0.490000,0.000000,0.000000,0.000000,31.0473175,-103.5266418,884.880,0.000,6070,21
"COREYMAY3",98,23627,0,9489245,901.760010,52.730000,0.076313,0.059096,0.984005,-0.365854,-0.243902,0.365854,0.490000,0.343000,0.637000,0.000000,0.000000,0.000000,31.0473175,-103.5266418,884.880,0.000,6070,21
"COREYMAY3",98,58832,0,9489255,901.760010,52.730000,0.097436,0.054335,1.001587,-0.121951,-0.121951,0.670732,0.588000,0.294000,0.637000,0.000000,0.000000,0.000000,31.0473175,-103.5266418,884.880,0.000,6070,21
"COREYMAY3",98,34820,0,9489265,901.760010,52.730000,0.114042,0.069841,0.994139,-0.121951,-0.182927,0.731707,0.588000,0.392000,0.686000,0.000000,0.000000,0.000000,31.0473175,-103.5266418,884.880,0.000,6070,21
"COREYMAY3",98,22778,0,9489275,901.799988,52.730000,0.081685,0.053358,1.003785,-0.304878,-0.243902,0.243902,0.588000,0.294000,0.441000,0.000000,0.000000,0.000000,31.0473175,-103.5266418,884.880,0.000,6070,21
"COREYMAY3",98,25888,0,9489285,901.799988,52.730000,0.072650,0.042247,0.998901,-0.426829,-0.243902,0.121951,0.637000,0.343000,0.588000,0.000000,0.000000,0.000000,31.0473175,-103.5266418,884.880,0.000,6070,21
"COREYMAY3",98,6986,0,9489295,901.799988,52.730000,0.112698,0.053236,0.992063,-0.365854,-0.243902,0.182927,0.490000,0.343000,0.588000,0.000000,0.000000,0.000000,31.0473175,-103.5266418,884.880,0.000,6070,21
"COREYMAY3",98,8076,0,9489305,901.799988,52.730000,0.093895,0.056899,1.005861,-0.243902,-0.182927,0.121951,0.490000,0.343000,0.490000,0.000000,0.000000,0.000000,31.0473175,-103.5266418,884.880,0.000,6070,21
"COREYMAY3",98,23638,0,9489315,901.750000,52.730000,0.087424,0.050427,0.983150,-0.182927,-0.182927,0.182927,0.490000,0.343000,0.490000,0.000000,0.000000,0.000000,31.0473175,-103.5266418,884.880,0.000,6070,21
"COREYMAY3",98,54525,0,9489325,901.750000,52.730000,0.087912,0.057631,1.006105,-0.304878,-0.304878,-0.365854,0.588000,0.294000,0.588000,0.000000,0.000000,0.000000,31.0473175,-103.5266418,884.880,0.000,6070,21
"COREYMAY3",98,45564,0,9489335,901.750000,52.730000,0.093773,0.061416,1.009768,-0.426829,-0.304878,-0.731707,0.637000,0.294000,0.490000,0.000000,0.000000,0.000000,31.0473175,-103.5266418,884.880,0.000,6070,21
"COREYMAY3",98,21104,0,9489345,901.750000,52.730000,0.079487,0.029304,0.974115,-0.426829,-0.182927,0.000000,0.588000,0.245000,0.441000,0.000000,0.000000,0.000000,31.0473175,-103.5266418,884.880,0.000,6070,21
"COREYMAY3",98,43826,0,9489355,901.820007,52.730000,0.117216,0.063370,1.001832,-0.182927,-0.182927,0.487805,0.637000,0.343000,0.539000,0.000000,0.000000,0.000000,31.0473175,-103.5266418,884.880,0.000,6070,21
"COREYMAY3",98,54301,0,9489365,901.820007,52.730000,0.088767,0.061538,1.003907,-0.060976,-0.182927,0.914634,0.686000,0.343000,0.539000,0.000000,0.000000,0.000000,31.0473175,-103.5266418,884.880,0.000,6070,21
"COREYMAY3",98,847,0,9489375,901.820007,52.730000,0.069841,0.047985,0.979365,-0.121951,-0.182927,0.731707,0.539000,0.392000,0.539000,0.000000,0.000000,0.000000,31.0473175,-103.5266418,884.880,0.000,6070,21
"COREYMAY3",98,36695,0,9489385,901.820007,52.730000,0.129670,0.067766,1.012332,-0.304878,-0.304878,0.304878,0.588000,0.392000,0.637000,0.000000,0.000000,0.000000,31.0473175,-103.5266418,884.880,0.000,6070,21
"COREYMAY3",98,30950,0,9489395,901.750000,52.730000,0.077045,0.037363,0.985592,-0.304878,-0.182927,0.243902,0.539000,0.294000,0.588000,0.000000,0.000000,0.000000,31.0473175,-103.5266418,884.880,0.000,6070,21
"COREYMAY3",98,3469,0,9489405,901.750000,52.730000,0.078999,0.035531,0.981685,-0.182927,-0.121951,0.548781,0.392000,0.245000,0.441000,0.000000,0.000000,0.000000,31.0473175,-103.5266418,884.880,0.000,6070,21
"COREYMAY3",98,7868,0,9489415,901.750000,52.730000,0.122100,0.075702,1.012943,0.000000,-0.121951,0.792683,0.637000,0.294000,0.539000,0.000000,0.000000,0.000000,31.0473175,-103.5266418,884.880,0.000,6070,21
"COREYMAY3",98,12533,0,9489425,901.750000,52.730000,0.090232,0.052991,0.986203,0.000000,-0.182927,0.548781,0.539000,0.441000,0.588000,0.000000,0.000000,0.000000,31.0473175,-103.5266418,884.880,0.000,6070,21
"COREYMAY3",98,7285,0,9489435,901.780029,52.730000,0.084615,0.032967,0.996703,-0.121951,-0.182927,0.060976,0.588000,0.343000,0.539000,0.000000,0.000000,0.000000,31.0473175,-103.5266418,884.880,0.000,6070,21
"COREYMAY3",98,10609,0,9489445,901.780029,52.730000,0.102320,0.064225,1.011722,-0.182927,-0.182927,0.121951,0.539000,0.294000,0.588000,0.000000,0.000000,0.000000,31.0473175,-103.5266418,884.880,0.000,6070,21
"COREYMAY3",98,61839,0,9489455,901.780029,52.730000,0.095726,0.038462,0.977534,-0.121951,-0.060976,0.182927,0.588000,0.294000,0.539000,0.000000,0.000000,0.000000,31.0473175,-103.5266418,884.880,0.000,6070,21
"COREYMAY3",98,62418,0,9489465,901.780029,52.730000,0.078632,0.057998,0.989011,0.060976,-0.121951,0.304878,0.539000,0.343000,0.490000,0.000000,0.000000,0.000000,31.0473175,-103.5266418,884.880,0.000,6070,21
"COREYMAY3",98,21524,0,9489475,901.739990,52.730000,0.145299,0.072894,0.999878,0.060976,-0.182927,0.426829,0.686000,0.294000,0.539000,0.000000,0.000000,0.000000,31.0473175,-103.5266418,884.880,0.000,6070,21
"COREYMAY3",98,12163,0,9489485,901.739990,52.730000,0.077534,0.049817,0.999267,-0.121951,-0.182927,-0.365854,0.539000,0.343000,0.490000,0.000000,0.000000,0.000000,31.0473175,-103.5266418,884.880,0.000,6070,21
"COREYMAY3",98,42862,0,9489495,901.739990,52.730000,0.088889,0.039194,0.992430,-0.243902,-0.121951,-0.365854,0.539000,0.392000,0.588000,0.000000,0.000000,0.000000,31.0473175,-103.5266418,884.880,0.000,6070,21
"COREYMAY3",98,16216,0,9489505,901.739990,52.730000,0.115385,0.062759,0.997314,-0.060976,0.000000,0.304878,0.588000,0.245000,0.588000,0.000000,0.000000,0.000000,31.0473175,-103.5266418,884.880,0.000,6070,21
"COREYMAY3",98,49397,0,9489515,901.760010,52.730000,0.111600,0.043101,0.995116,0.060976,0.121951,0.304878,0.588000,0.294000,0.588000,0.000000,0.000000,0.000000,31.0473175,-103.5266418,884.880,0.000,6070,21
"COREYMAY3",98,63411,0,9489525,901.760010,52.730000,0.085470,0.055189,0.980098,0.060976,0.060976,0.548781,0.441000,0.343000,0.588000,0.000000,0.000000,0.000000,31.0473175,-103.5266418,884.880,0.000,6070,21
"COREYMAY3",98,14462,0,9489535,901.760010,52.730000,0.126618,0.083150,1.000000,0.000000,-0.060976,-0.121951,0.588000,0.392000,0.588000,0.000000,0.000000,0.000000,31.0473175,-103.5266418,884.880,0.000,6070,21
"COREYMAY3",98,44153,0,9489545,901.760010,52.730000,0.102808,0.045299,1.006716,-0.182927,-0.121951,-1.036585,0.490000,0.294000,0.539000,0.000000,0.000000,0.000000,31.0473175,-103.5266418,884.880,0.000,6070,21
"COREYMAY3",98,43908,0,9489555,901.750000,52.730000,0.071306,0.043590,0.972772,-0.182927,-0.060976,-0.914634,0.490000,0.294000,0.539000,0.000000,0.000000,0.000000,31.0473175,-103.5266418,884.880,0.000,6070,21
"COREYMAY3",98,57008,0,9489565,901.750000,52.730000,0.127228,0.066422,1.005494,-0.060976,-0.060976,-0.731707,0.539000,0.245000,0.637000,0.000000,0.000000,0.000000,31.0473175,-103.5266418,884.880,0.000,6070,21
"COREYMAY3",98,17078,0,9489575,901.750000,52.730000,0.103907,0.067643,0.997192,0.000000,0.121951,-0.853659,0.588000,0.294000,0.588000,0.000000,0.000000,0.000000,31.0473175,-103.5266418,884.880,0.000,6070,21
"COREYMAY3",98,54302,0,9489585,901.750000,52.730000,0.084493,0.070208,0.968742,-0.060976,0.060976,-0.792683,0.539000,0.294000,0.588000,0.000000,0.000000,0.000000,31.0473175,-103.5266418,884.880,0.000,6070,21
"COREYMAY3",98,29520,0,9489595,901.719971,52.730000,0.123199,0.076313,1.014530,-0.121951,-0.060976,-0.975610,0.490000,0.392000,0.490000,0.000000,0.000000,0.000000,31.0473175,-103.5266418,884.880,0.000,6070,21
"COREYMAY3",98,38683,0,9489605,901.719971,52.730000,0.089744,0.047985,1.000244,-0.243902,-0.060976,-0.670732,0.490000,0.343000,0.539000,0.000000,0.000000,0.000000,31.0473175,-103.5266418,884.880,0.000,6070,21
"COREYMAY3",98,40957,0,9489615,901.719971,52.730000,0.073382,0.044322,0.982784,-0.182927,0.121951,0.060976,0.539000,0.343000,0.539000,0.000000,0.000000,0.000000,31.0473175,-103.5266418,884.880,0.000,6070,21
"COREYMAY3",98,39537,0,9489625,901.719971,52.730000,0.121001,0.088034,1.004396,-0.060976,0.182927,0.365854,0.588000,0.343000,0.637000,0.000000,0.000000,0.000000,31.0473175,-103.5266418,884.880,0.000,6070,21
"COREYMAY3",98,3254,0,9489635,901.760010,52.730000,0.110745,0.057387,0.993895,0.000000,0.182927,0.304878,0.490000,0.294000,0.588000,0.000000,0.000000,0.000000,31.0473175,-103.5266418,884.880,0.000,6070,21
"COREYMAY3",98,47868,0,9489645,901.760010,52.730000,0.077289,0.071673,0.991453,-0.060976,0.060976,-0.182927,0.539000,0.392000,0.588000,0.000000,0.000000,0.000000,31.0473175,-103.5266418,884.880,0.000,6070,21
"COREYMAY3",98,20461,0,9489655,901.760010,52.730000,0.092430,0.043834,1.014530,-0.243902,0.000000,0.121951,0.539000,0.343000,0.637000,0.000000,0.000000,0.000000,31.0473175,-103.5266418,884.880,0.000,6070,21
"COREYMAY3",98,30949,0,9489665,901.760010,52.730000,0.097436,0.046764,0.987302,-0.304878,0.060976,0.609756,0.588000,0.196000,0.490000,0.000000,0.000000,0.000000,31.0473175,-103.5266418,884.880,0.000,6070,21
"COREYMAY3",98,45069,0,9489675,901.750000,52.730000,0.096581,0.054212,1.003785,-0.121951,0.060976,0.609756,0.490000,0.392000,0.637000,0.000000,0.000000,0.000000,31.0473175,-103.5266418,884.880,0.000,6070,21
"COREYMAY3",98,13270,0,9489685,901.750000,52.730000,0.104274,0.055311,0.990354,0.060976,0.121951,0.426829,0.588000,0.294000,0.588000,0.000000,0.000000,0.000000,31.0473175,-103.5266418,884.880,0.000,6070,21
"COREYMAY3",98,3024,0,9489695,901.750000,52.730000,0.088034,0.061050,0.999267,0.000000,0.121951,-0.426829,0.490000,0.392000,0.539000,0.000000,0.000000,0.000000,31.0473175,-103.5266418,884.880,0.000,6070,21
"COREYMAY3",98,60103,0,9489705,901.750000,52.730000,0.094261,0.055189,1.008181,-0.182927,0.000000,-1.219512,0.588000,0.392000,0.637000,0.000000,0.000000,0.000000,31.0473175,-103.5266418,884.880,0.000,6070,21
"COREYMAY3",98,11544,0,9489715,901.739990,52.730000,0.085836,0.062882,0.981685,-0.365854,0.000000,-0.731707,0.539000,0.343000,0.539000,0.000000,0.000000,0.000000,31.0473175,-103.5266418,884.880,0.000,6070,21
"COREYMAY3",98,41965,0,9489725,901.739990,52.730000,0.117094,0.028938,1.004640,-0.243902,0.000000,-0.365854,0.539000,0.343000,0.490000,0.000000,0.000000,0.000000,31.0473175,-103.5266418,884.880,0.000,6070,21
"COREYMAY3",98,25781,0,9489735,901.739990,52.730000,0.075214,0.085470,0.990720,-0.121951,0.060976,-0.182927,0.539000,0.343000,0.490000,0.000000,0.000000,0.000000,31.0473175,-103.5266418,884.880,0.000,6070,21
"COREYMAY3",98,48348,0,9489745,901.739990,52.730000,0.081319,0.035165,0.991575,0.000000,0.060976,0.060976,0.539000,0.343000,0.588000,0.000000,0.000000,0.000000,31.0473175,-103.5266418,884.880,0.000,6070,21
"COREYMAY3",98,14483,0,9489755,901.710022,52.730000,0.108547,0.083761,1.007936,-0.060976,0.000000,-0.121951,0.539000,0.343000,0.588000,0.000000,0.000000,0.000000,31.0473175,-103.5266418,884.880,0.000,6070,21
"COREYMAY3",98,60409,0,9489765,901.710022,52.730000,0.067277,0.047131,0.988645,-0.243902,-0.060976,-0.121951,0.539000,0.294000,0.588000,0.000000,0.000000,0.000000,31.0473175,-103.5266418,884.880,0.000,6070,21
"COREYMAY3",98,4711,0,9489775,901.710022,52.730000,0.079976,0.045055,0.989621,-0.182927,-0.060976,0.121951,0.637000,0.294000,0.588000,0.000000,0.000000,0.000000,31.0473175,-103.5266418,884.880,0.000,6070,21
"COREYMAY3",98,1703,0,9489785,901.710022,52.730000,0.111722,0.079365,1.000000,-0.060976,-0.121951,0.182927,0.588000,0.294000,0.539000,0.000000,0.000000,0.000000,31.0473175,-103.5266418,884.880,0.000,6070,21
"COREYMAY3",98,24508,0,9489795,901.729980,52.730000,0.085836,0.059463,0.988889,0.000000,-0.182927,0.000000,0.490000,0.294000,0.539000,0.000000,0.000000,0.000000,31.0473175,-103.5266418,884.880,0.000,6070,21
"COREYMAY3",98,8295,0,9489805,901.729980,52.730000,0.078266,0.062882,1.000733,-0.060976,-0.182927,-0.121951,0.490000,0.294000,0.539000,0.000000,0.000000,0.000000,31.0473175,-103.5266418,884.880,0.000,6070,21
"COREYMAY3",98,63230,0,9489815,901.729980,52.730000,0.097070,0.048352,1.003663,-0.243902,-0.182927,0.060976,0.588000,0.294000,0.686000,0.000000,0.000000,0.000000,31.0473175,-103.5266418,884.880,0.000,6070,21
"COREYMAY3",98,18892,0,9489825,901.729980,52.730000,0.088156,0.071673,0.985470,-0.243902,-0.121951,-0.060976,0.588000,0.343000,0.588000,0.000000,0.000000,0.000000,31.0473175,-103.5266418,884.880,0.000,6070,21
"COREYMAY3",98,45314,0,9489835,901.729980,52.730000,0.092552,0.036142,1.000366,-0.121951,-0.121951,0.121951,0.588000,0.343000,0.490000,0.000000,0.000000,0.000000,31.0473175,-103.5266418,884.880,0.000,6070,21
"COREYMAY3",98,45133,0,9489845,901.729980,52.730000,0.086447,0.085958,0.978999,-0.060976,-0.243902,0.121951,0.490000,0.392000,0.539000,0.000000,0.000000,0.000000,31.0473175,-103.5266418,884.880,0.000,6070,21
"COREYMAY3",98,11671,0,9489855,901.729980,52.730000,0.085592,0.050305,1.011233,-0.121951,-0.304878,-0.182927,0.588000,0.294000,0.441000,0.000000,0.000000,0.000000,31.0473175,-103.5266418,884.880,0.000,6070,21
"COREYMAY3",98,7734,0,9489865,901.729980,52.730000,0.080220,0.047985,0.999512,-0.243902,-0.304878,-0.182927,0.588000,0.343000,0.539000,0.000000,0.000000,0.000000,31.0473175,-103.5266418,884.880,0.000,6070,21
"COREYMAY3",98,27889,0,9489875,901.750000,52.730000,0.077778,0.048474,0.990354,-0.243902,-0.304878,-0.304878,0.490000,0.392000,0.539000,0.000000,0.000000,0.000000,31.0473175,-103.5266418,884.880,0.000,6070,21
"COREYMAY3",98,59171,0,9489885,901.750000,52.730000,0.090598,0.056532,1.005128,-0.121951,-0.243902,-0.121951,0.539000,0.392000,0.539000,0.000000,0.000000,0.000000,31.0473175,-103.5266418,884.880,0.000,6070,21
"COREYMAY3",98,8310,0,9489895,901.750000,52.730000,0.091575,0.061294,0.974969,-0.060976,-0.182927,0.426829,0.539000,0.294000,0.490000,0.000000,0.000000,0.000000,31.0473175,-103.5266418,884.880,0.000,6070,21
"COREYMAY3",98,53757,0,9489905,901.750000,52.730000,0.085958,0.061172,1.000000,0.000000,-0.304878,0.914634,0.588000,0.294000,0.637000,0.000000,0.000000,0.000000,31.0473175,-103.5266418,884.880,0.000,6070,21
"COREYMAY3",98,58375,0,9489915,901.760010,52.730000,0.102686,0.067399,1.010378,-0.182927,-0.426829,0.975610,0.490000,0.392000,0.539000,0.000000,0.000000,0.000000,31.0473175,-103.5266418,884.880,0.000,6070,21
"COREYMAY3",98,7122,0,9489925,901.760010,52.730000,0.086935,0.037973,0.984371,-0.243902,-0.304878,0.914634,0.490000,0.343000,0.490000,0.000000,0.000000,0.000000,31.0473175,-103.5266418,884.880,0.000,6070,21
"COREYMAY3",98,17661,0,9489935,901.760010,52.730000,0.098779,0.076557,0.994017,-0.182927,-0.243902,0.426829,0.588000,0.343000,0.539000,0.000000,0.000000,0.000000,31.0473175,-103.5266418,884.880,0.000,6070,21
"COREYMAY3",98,55836,0,9489945,901.760010,52.730000,0.122833,0.057387,0.994872,-0.121951,-0.243902,0.548781,0.490000,0.392000,0.539000,0.000000,0.000000,0.000000,31.0473175,-103.5266418,884.880,0.000,6070,21
"COREYMAY3",98,60854,0,9489955,901.739990,52.730000,0.067643,0.059096,0.980098,-0.121951,-0.243902,0.487805,0.539000,0.392000,0.539000,0.000000,0.000000,0.000000,31.0473175,-103.5266418,884.880,0.000,6070,21
"COREYMAY3",98,38191,0,9489965,901.739990,52.730000,0.109890,0.074115,0.999756,-0.182927,-0.365854,0.487805,0.588000,0.343000,0.588000,0.000000,0.000000,0.000000,31.0473175,-103.5266418,884.880,0.000,6070,21
"COREYMAY3",98,7653,0,9489975,901.739990,52.730000,0.107326,0.056899,0.994628,-0.243902,-0.304878,0.365854,0.490000,0.441000,0.490000,0.000000,0.000000,0.000000,31.0473175,-103.5266418,884.880,0.000,6070,21
"COREYMAY3",98,31031,0,9489985,901.739990,52.730000,0.088156,0.048107,0.983150,-0.243902,-0.243902,0.121951,0.441000,0.392000,0.686000,0.000000,0.000000,0.000000,31.0473175,-103.5266418,884.880,0.000,6070,21
"COREYMAY3",98,22565,0,9489995,901.719971,52.730000,0.104151,0.067888,1.002442,-0.182927,-0.182927,0.548781,0.588000,0.392000,0.637000,0.000000,0.000000,0.000000,31.0473175,-103.5266418,884.880,0.000,6070,21
"COREYMAY3",98,40234,0,9490005,901.719971,52.730000,0.110256,0.065324,0.992186,-0.121951,-0.182927,0.487805,0.490000,0.392000,0.588000,0.000000,0.000000,0.000000,31.0473175,-103.5266418,884.880,0.000,6070,21
"COREYMAY3",98,5878,0,9490015,901.719971,52.730000,0.090720,0.059707,0.985226,-0.182927,-0.182927,0.304878,0.539000,0.343000,0.588000,0.000000,0.000000,0.000000,31.0473175,-103.5266418,884.880,0.000,6070,21
"COREYMAY3",98,6042,0,9490025,901.719971,52.730000,0.095726,0.068010,0.993773,-0.304878,-0.243902,0.121951,0.637000,0.343000,0.588000,0.000000,0.000000,0.000000,31.0473175,-103.5266418,884.880,0.000,6070,21
"COREYMAY3",98,56786,0,9490035,901.710022,52.730000,0.131746,0.046520,1.008547,-0.365854,-0.304878,0.060976,0.588000,0.294000,0.588000,0.000000,0.000000,0.000000,31.0473175,-103.5266418,884.880,0.000,6070,21
"COREYMAY3",98,3353,0,9490045,901.710022,52.730000,0.068376,0.062882,0.987546,-0.243902,-0.182927,0.365854,0.588000,0.294000,0.588000,0.000000,0.000000,0.000000,31.0473175,-103.5266418,884.880,0.000,6070,21
"COREYMAY3",98,62608,0,9490055,901.710022,52.730000,0.126007,0.058730,0.989988,-0.121951,-0.121951,1.097561,0.588000,0.245000,0.441000,0.000000,0.000000,0.000000,31.0473175,-103.5266418,884.880,0.000,6070,21
"COREYMAY3",98,35211,0,9490065,901.710022,52.730000,0.124664,0.065690,1.011844,-0.121951,-0.060976,0.792683,0.588000,0.392000,0.441000,0.000000,0.000000,0.000000,31.0473175,-103.5266418,884.880,0.000,6070,21
"COREYMAY3",98,35428,0,9490075,901.710022,52.730000,0.078266,0.029915,0.991941,-0.243902,-0.060976,0.426829,0.735000,0.245000,0.490000,0.000000,0.000000,0.000000,31.0473175,-103.5266418,884.880,0.000,6070,21
"COREYMAY3",98,12227,0,9490085,901.710022,52.730000,0.093773,0.047863,0.986691,-0.243902,-0.060976,0.365854,0.539000,0.392000,0.490000,0.000000,0.000000,0.000000,31.0473175,-103.5266418,884.880,0.000,6070,21
"COREYMAY3",98,16429,0,9490095,901.710022,52.730000,0.122344,0.046154,1.014286,-0.182927,-0.060976,-0.121951,0.539000,0.294000,0.490000,0.000000,0.000000,0.000000,31.0473175,-103.5266418,884.880,0.000,6070,21
"COREYMAY3",98,54255,0,9490105,901.710022,52.730000,0.092430,0.035165,0.991819,-0.182927,-0.060976,-0.243902,0.539000,0.343000,0.588000,0.000000,0.000000,0.000000,31.0473175,-103.5266418,884.880,0.000,6070,21
"COREYMAY3",98,3889,0,9490115,901.690002,52.730000,0.074237,0.050672,0.999145,-0.182927,-0.060976,-0.914634,0.539000,0.343000,0.441000,0.000000,0.000000,0.000000,31.0473175,-103.5266418,884.880,0.000,6070,21
"COREYMAY3",98,58543,0,9490125,901.690002,52.730000,0.134066,0.037729,1.019414,-0.243902,-0.060976,-1.341463,0.686000,0.343000,0.588000,0.000000,0.000000,0.000000,31.0473175,-103.5266418,884.880,0.000,6070,21
"COREYMAY3",98,58419,0,9490135,901.690002,52.730000,0.067155,0.077411,0.976557,-0.243902,0.000000,-1.585366,0.490000,0.343000,0.490000,0.000000,0.000000,0.000000,31.0473175,-103.5266418,884.880,0.000,6070,21
"COREYMAY3",98,60910,0,9490145,901.690002,52.730000,0.104029,0.024420,1.004151,-0.182927,0.000000,-1.036585,0.539000,0.392000,0.588000,0.000000,0.000000,0.000000,31.0473175,-103.5266418,884.880,0.000,6070,21
"COREYMAY3",98,56721,0,9490155,901.750000,52.730000,0.116484,0.072527,0.997680,-0.060976,-0.060976,-0.426829,0.441000,0.441000,0.539000,0.000000,0.000000,0.000000,31.0473175,-103.5266418,884.880,0.000,6070,21
"COREYMAY3",98,60220,0,9490165,901.750000,52.730000,0.068987,0.054701,0.998535,-0.060976,0.000000,-0.548781,0.539000,0.343000,0.637000,0.000000,0.000000,0.000000,31.0473175,-103.5266418,884.880,0.000,6070,21
"COREYMAY3",98,12944,0,9490175,901.750000,52.730000,0.082295,0.038584,0.996581,-0.121951,0.000000,-0.792683,0.637000,0.294000,0.588000,0.000000,0.000000,0.000000,31.0473175,-103.5266418,884.880,0.000,6070,21
"COREYMAY3",98,30683,0,9490185,901.750000,52.730000,0.099145,0.077534,0.992796,-0.121951,0.000000,-0.365854,0.588000,0.343000,0.392000,0.000000,0.000000,0.000000,31.0473175,-103.5266418,884.880,0.000,6070,21
"COREYMAY3",98,31315,0,9490195,901.750000,52.730000,0.096581,0.028816,0.999512,-0.121951,0.000000,0.000000,0.539000,0.294000,0.490000,0.000000,0.000000,0.000000,31.0473175,-103.5266418,884.880,0.000,6070,21
"COREYMAY3",98,59379,0,9490205,901.750000,52.730000,0.078266,0.072894,0.984127,0.000000,0.000000,0.853659,0.490000,0.343000,0.539000,0.000000,0.000000,0.000000,31.0473175,-103.5266418,884.880,0.000,6070,21
"COREYMAY3",98,64783,0,9490215,901.750000,52.730000,0.117216,0.052137,0.997802,0.121951,0.000000,1.219512,0.637000,0.343000,0.686000,0.000000,0.000000,0.000000,31.0473175,-103.5266418,884.880,0.000,6070,21
"COREYMAY3",98,58889,0,9490225,901.750000,52.730000,0.092186,0.075824,0.997314,0.060976,-0.060976,0.487805,0.539000,0.343000,0.686000,0.000000,0.000000,0.000000,31.0473175,-103.5266418,884.880,0.000,6070,21
"COREYMAY3",98,65163,0,9490235,901.719971,52.730000,0.087424,0.026496,0.983028,0.000000,0.000000,0.609756,0.588000,0.294000,0.637000,0.000000,0.000000,0.000000,31.0473175,-103.5266418,884.880,0.000,6070,21
"COREYMAY3",98,35313,0,9490245,901.719971,52.730000,0.114652,0.074115,0.993284,0.060976,0.000000,0.426829,0.539000,0.343000,0.539000,0.000000,0.000000,0.000000,31.0473175,-103.5266418,884.880,0.000,6070,21
"COREYMAY3",98,40086,0,9490255,901.719971,52.730000,0.112821,0.073504,0.992430,0.121951,-0.060976,0.182927,0.490000,0.294000,0.539000,0.000000,0.000000,0.000000,31.0473175,-103.5266418,884.880,0.000,6070,21
"COREYMAY3",98,59550,0,9490265,901.719971,52.730000,0.079976,0.042613,0.976313,0.060976,-0.121951,-0.060976,0.490000,0.245000,0.490000,0.000000,0.000000,0.000000,31.0473175,-103.5266418,884.880,0.000,6070,21
"COREYMAY3",98,7816,0,9490275,901.739990,52.730000,0.125519,0.085226,1.005739,0.060976,-0.182927,-0.548781,0.539000,0.343000,0.588000,0.000000,0.000000,0.000000,31.0473175,-103.5266418,884.880,0.000,6070,21
"COREYMAY3",98,19341,0,9490285,901.739990,52.730000,0.090598,0.026252,1.006471,0.000000,-0.060976,-0.426829,0.539000,0.343000,0.588000,0.000000,0.000000,0.000000,31.0473175,-103.5266418,884.880,0.000,6070,21
"COREYMAY3",98,31303,0,9490295,901.739990,52.730000,0.066178,0.054701,0.969475,0.121951,0.060976,0.365854,0.686000,0.245000,0.539000,0.000000,0.000000,0.000000,31.0473175,-103.5266418,884.880,0.000,6070,21
"COREYMAY3",98,34130,0,9490305,901.739990,52.730000,0.133455,0.059951,1.012943,0.243902,0.060976,0.731707,0.588000,0.294000,0.441000,0.000000,0.000000,0.000000,31.0473175,-103.5266418,884.880,0.000,6070,21
"COREYMAY3",98,1238,0,9490315,901.700012,52.730000,0.111722,0.054579,0.995604,0.243902,0.060976,0.487805,0.637000,0.392000,0.735000,0.000000,0.000000,0.000000,31.0473175,-103.5266418,884.880,0.000,6070,21
"COREYMAY3",98,34772,0,9490325,901.700012,52.730000,0.064347,0.037363,0.982540,0.182927,0.121951,0.182927,0.490000,0.294000,0.539000,0.000000,0.000000,0.000000,31.0473175,-103.5266418,884.880,0.000,6070,21
"COREYMAY3",98,61836,0,9490335,901.700012,52.730000,0.109524,0.071429,1.012576,0.121951,0.060976,-0.182927,0.539000,0.294000,0.490000,0.000000,0.000000,0.000000,31.0473175,-103.5266418,884.880,0.000,6070,21
"COREYMAY3",98,45123,0,9490345,901.700012,52.730000,0.115873,0.040659,0.999878,0.060976,0.000000,-0.121951,0.539000,0.294000,0.588000,0.000000,0.000000,0.000000,31.0473175,-103.5266418,884.880,0.000,6070,21
"COREYMAY3",98,12854,0,9490355,901.750000,52.730000,0.090720,0.048962,0.990965,0.121951,0.060976,-0.304878,0.490000,0.441000,0.637000,0.000000,0.000000,0.000000,31.0473175,-103.5266418,884.880,0.000,6070,21
"COREYMAY3",98,39180,0,9490365,901.750000,52.730000,0.125275,0.059707,1.006227,0.243902,0.121951,-0.548781,0.637000,0.294000,0.637000,0.000000,0.000000,0.000000,31.0473175,-103.5266418,884.880,0.000,6070,21
"COREYMAY3",98,1239,0,9490375,901.750000,52.730000,0.079976,0.052869,0.994872,0.182927,0.121951,-1.158537,0.392000,0.441000,0.539000,0.000000,0.000000,0.000000,31.0473175,-103.5266418,884.880,0.000,6070,21
"COREYMAY3",98,40868,0,9490385,901.750000,52.730000,0.099267,0.058608,0.997558,0.060976,0.182927,-1.463415,0.588000,0.343000,0.637000,0.000000,0.000000,0.000000,31.0473175,-103.5266418,884.880,0.000,6070,21
"COREYMAY3",98,29531,0,9490395,901.690002,52.740002,0.098657,0.061538,0.989621,0.000000,0.121951,-1.280488,0.588000,0.343000,0.637000,0.000000,0.000000,0.000000,31.0473175,-103.5266418,884.880,0.000,6070,21
"COREYMAY3",98,179,0,9490405,901.690002,52.740002,0.091941,0.054212,0.994750,-0.060976,0.060976,-1.768293,0.588000,0.294000,0.539000,0.000000,0.000000,0.000000,31.0473175,-103.5266418,884.880,0.000,6070,21
"COREYMAY3",98,16418,0,9490415,901.690002,52.740002,0.091575,0.067521,1.005861,-0.060976,0.121951,-2.256098,0.490000,0.343000,0.637000,0.000000,0.000000,0.000000,31.0473175,-103.5266418,884.880,0.000,6070,21
"COREYMAY3",98,5114,0,9490425,901.690002,52.740002,0.080098,0.072161,0.986447,0.060976,0.121951,-2.378049,0.539000,0.294000,0.490000,0.000000,0.000000,0.000000,31.0473175,-103.5266418,884.880,0.000,6070,21
"COREYMAY3",98,61086,0,9490435,901.770020,52.730000,0.104029,0.061416,1.003419,0.060976,0.182927,-1.951220,0.539000,0.245000,0.490000,0.000000,0.000000,0.000000,31.0473175,-103.5266418,884.880,0.000,6070,21
"COREYMAY3",98,22623,0,9490445,901.770020,52.730000,0.069475,0.074603,0.993407,0.000000,0.182927,-1.341463,0.588000,0.343000,0.441000,0.000000,0.000000,0.000000,31.0473175,-103.5266418,884.880,0.000,6070,21
"COREYMAY3",98,10268,0,9490455,901.770020,52.730000,0.069353,0.063004,0.983639,-0.060976,0.182927,-0.609756,0.588000,0.343000,0.637000,0.000000,0.000000,0.000000,31.0473175,-103.5266418,884.880,0.000,6070,21
"COREYMAY3",98,21444,0,9490465,901.770020,52.730000,0.101343,0.076435,1.007936,0.000000,0.060976,-0.365854,0.490000,0.392000,0.588000,0.000000,0.000000,0.000000,31.0473175,-103.5266418,884.880,0.000,6070,21
"COREYMAY3",98,29502,0,9490475,901.750000,52.730000,0.095726,0.077289,0.989377,0.000000,0.121951,-0.060976,0.441000,0.441000,0.539000,0.000000,0.000000,0.000000,31.0473175,-103.5266418,884.880,0.000,6070,21
"COREYMAY3",98,36445,0,9490485,901.750000,52.730000,0.042979,0.048230,0.991575,0.000000,0.121951,0.365854,0.539000,0.245000,0.637000,0.000000,0.000000,0.000000,31.0473175,-103.5266418,884.880,0.000,6070,21
"COREYMAY3",98,464,0,9490495,901.750000,52.730000,0.110989,0.089499,1.018315,0.000000,0.060976,0.975610,0.539000,0.343000,0.490000,0.000000,0.000000,0.000000,31.0473175,-103.5266418,884.880,0.000,6070,21
"COREYMAY3",98,50326,0,9490505,901.750000,52.730000,0.086935,0.056777,0.978266,-0.121951,0.060976,1.036585,0.539000,0.294000,0.588000,0.000000,0.000000,0.000000,31.0473175,-103.5266418,884.880,0.000,6070,21
"COREYMAY3",98,50092,0,9490515,901.719971,52.740002,0.070208,0.067888,0.988523,-0.060976,0.060976,0.853659,0.490000,0.294000,0.539000,0.000000,0.000000,0.000000,31.0473175,-103.5266418,884.880,0.000,6070,21
"COREYMAY3",98,15161,0,9490525,901.719971,52.740002,0.123565,0.054579,1.015018,0.000000,0.000000,1.402439,0.588000,0.245000,0.441000,0.000000,0.000000,0.000000,31.0473175,-103.5266418,884.880,0.000,6070,21
"COREYMAY3",98,25695,0,9490535,901.719971,52.740002,0.049328,0.064347,0.980586,0.000000,0.000000,1.768293,0.588000,0.245000,0.441000,0.000000,0.000000,0.000000,31.0473175,-103.5266418,884.880,0.000,6070,21
"COREYMAY3",98,22629,0,9490545,901.719971,52.740002,0.092186,0.043468,1.003541,0.000000,0.000000,2.073171,0.490000,0.343000,0.686000,0.000000,0.000000,0.000000,31.0473175,-103.5266418,884.880,0.000,6070,21
"COREYMAY3",98,49919,0,9490555,901.780029,52.740002,0.112698,0.061661,1.004029,0.000000,0.000000,1.951220,0.490000,0.343000,0.833000,0.000000,0.000000,0.000000,31.0473175,-103.5266418,884.880,0.000,6070,21
"COREYMAY3",98,1235,0,9490565,901.780029,52.740002,0.092063,0.044078,0.984737,-0.121951,0.000000,0.792683,0.539000,0.245000,0.637000,0.000000,0.000000,0.000000,31.0473175,-103.5266418,884.880,0.000,6070,21
"COREYMAY3",98,64240,0,9490575,901.780029,52.740002,0.070085,0.058120,0.995849,-0.121951,-0.060976,-0.060976,0.490000,0.294000,0.441000,0.000000,0.000000,0.000000,31.0473175,-103.5266418,884.880,0.000,6070,21
"COREYMAY3",98,62706,0,9490585,901.780029,52.740002,0.136996,0.071673,0.996703,-0.121951,-0.121951,0.365854,0.637000,0.343000,0.637000,0.000000,0.000000,0.000000,31.0473175,-103.5266418,884.880,0.000,6070,21
"COREYMAY3",98,30869,0,9490595,901.750000,52.730000,0.085958,0.031013,0.990354,-0.121951,-0.121951,0.426829,0.441000,0.441000,0.637000,0.000000,0.000000,0.000000,31.0473175,-103.5266418,884.880,0.000,6070,21
"COREYMAY3",98,38068,0,9490605,901.750000,52.730000,0.087424,0.059951,0.999389,-0.121951,0.000000,0.548781,0.588000,0.245000,0.588000,0.000000,0.000000,0.000000,31.0473175,-103.5266418,884.880,0.000,6070,21
"COREYMAY3",98,10553,0,9490615,901.750000,52.730000,0.132112,0.044200,0.997436,-0.060976,0.000000,-0.060976,0.637000,0.343000,0.686000,0.000000,0.000000,0.000000,31.0473175,-103.5266418,884.880,0.000,6070,21
"COREYMAY3",98,57106,0,9490625,901.750000,52.730000,0.075946,0.063492,0.989011,-0.121951,0.060976,-1.341463,0.588000,0.343000,0.686000,0.000000,0.000000,0.000000,31.0473175,-103.5266418,884.880,0.000,6070,21
"COREYMAY3",98,58631,0,9490635,901.809998,52.740002,0.084127,0.031502,0.993162,-0.060976,0.000000,-1.219512,0.539000,0.294000,0.539000,0.000000,0.000000,0.000000,31.0473175,-103.5266418,884.880,0.000,6070,21
"COREYMAY3",98,13597,0,9490645,901.809998,52.740002,0.103907,0.069841,1.011477,-0.060976,-0.121951,-1.158537,0.539000,0.343000,0.637000,0.000000,0.000000,0.000000,31.0473175,-103.5266418,884.880,0.000,6070,21
"COREYMAY3",98,41766,0,9490655,901.809998,52.740002,0.074237,0.049084,0.995116,-0.121951,-0.060976,-1.585366,0.441000,0.343000,0.490000,0.000000,0.000000,0.000000,31.0473175,-103.5266418,884.880,0.000,6070,21
"COREYMAY3",98,51145,0,9490665,901.809998,52.740002,0.062393,0.060806,0.980220,-0.121951,-0.121951,-1.829268,0.490000,0.294000,0.539000,0.000000,0.000000,0.000000,31.0473175,-103.5266418,884.880,0.000,6070,21
"COREYMAY3",98,53461,0,9490675,901.760010,52.740002,0.130525,0.065690,1.019414,-0.060976,-0.121951,-2.134146,0.539000,0.294000,0.588000,0.000000,0.000000,0.000000,31.0473175,-103.5266418,884.880,0.000,6070,21
"COREYMAY3",98,2608,0,9490685,901.760010,52.740002,0.058608,0.052991,0.987912,-0.121951,-0.060976,-2.073171,0.539000,0.294000,0.539000,0.000000,0.000000,0.000000,31.0473175,-103.5266418,884.880,0.000,6070,21
"COREYMAY3",98,55568,0,9490695,901.760010,52.740002,0.054579,0.083150,0.973871,-0.121951,-0.182927,-1.097561,0.490000,0.294000,0.441000,0.000000,0.000000,0.000000,31.0473175,-103.5266418,884.880,0.000,6070,21
"COREYMAY3",98,30455,0,9490705,901.760010,52.740002,0.127350,0.068132,1.023443,-0.121951,-0.243902,-0.731707,0.588000,0.343000,0.686000,0.000000,0.000000,0.000000,31.0473175,-103.5266418,884.880,0.000,6070,21
"COREYMAY3",98,8119,0,9490715,901.700012,52.740002,0.053724,0.073748,0.978999,-0.182927,-0.182927,-0.853659,0.490000,0.294000,0.539000,0.000000,0.000000,0.000000,31.0473175,-103.5266418,884.880,0.000,6070,21
"COREYMAY3",98,45041,0,9490725,901.700012,52.740002,0.066545,0.051770,0.986447,-0.182927,-0.243902,-0.426829,0.490000,0.343000,0.490000,0.000000,0.000000,0.000000,31.0473175,-103.5266418,884.880,0.000,6070,21
"COREYMAY3",98,14836,0,9490735,901.700012,52.740002,0.117460,0.103907,1.016239,-0.121951,-0.304878,-0.243902,0.588000,0.343000,0.539000,0.000000,0.000000,0.000000,31.0473175,-103.5266418,884.880,0.000,6070,21
"COREYMAY3",98,18756,0,9490745,901.700012,52.740002,0.066178,0.048962,0.980952,-0.182927,-0.243902,0.243902,0.490000,0.343000,0.539000,0.000000,0.000000,0.000000,31.0473175,-103.5266418,884.880,0.000,6070,21
"COREYMAY3",98,14004,0,9490755,901.780029,52.740002,0.064835,0.073382,0.989621,-0.182927,-0.304878,1.219512,0.588000,0.294000,0.441000,0.000000,0.000000,0.000000,31.0473175,-103.5266418,884.880,0.000,6070,21
"COREYMAY3",98,37902,0,9490765,901.780029,52.740002,0.132723,0.063126,1.020024,-0.121951,-0.304878,2.012195,0.588000,0.392000,0.637000,0.000000,0.000000,0.000000,31.0473175,-103.5266418,884.880,0.000,6070,21
"COREYMAY3",98,55090,0,9490775,901.780029,52.740002,0.043223,0.057631,0.975336,-0.121951,-0.182927,2.195122,0.588000,0.392000,0.637000,0.000000,0.000000,0.000000,31.0473175,-103.5266418,884.880,0.000,6070,21
"COREYMAY3",98,40820,0,9490785,901.780029,52.740002,0.099390,0.056777,0.993407,-0.060976,-0.243902,2.804878,0.539000,0.245000,0.588000,0.000000,0.000000,0.000000,31.0473175,-103.5266418,884.880,0.000,6070,21
"COREYMAY3",98,41748,0,9490795,901.760010,52.740002,0.140049,0.064347,1.012576,-0.060976,-0.304878,2.865854,0.588000,0.392000,0.588000,0.000000,0.000000,0.000000,31.0473175,-103.5266418,884.880,0.000,6070,21
"COREYMAY3",98,4862,0,9490805,901.760010,52.740002,0.067155,0.048962,0.977656,-0.060976,-0.243902,2.012195,0.588000,0.294000,0.686000,0.000000,0.000000,0.000000,31.0473175,-103.5266418,884.880,0.000,6070,21
"COREYMAY3",98,35758,0,9490815,901.760010,52.740002,0.100611,0.053114,1.002686,-0.060976,-0.243902,1.768293,0.441000,0.392000,0.490000,0.000000,0.000000,0.000000,31.0473175,-103.5266418,884.880,0.000,6070,21
"COREYMAY3",98,14931,0,9490825,901.760010,52.740002,0.146520,0.067155,1.001709,-0.121951,-0.243902,1.463415,0.637000,0.294000,0.588000,0.000000,0.000000,0.000000,31.0473175,-103.5266418,884.880,0.000,6070,21
"COREYMAY3",98,63893,0,9490835,901.700012,52.740002,0.087668,0.025763,0.978266,-0.121951,-0.121951,0.975610,0.539000,0.343000,0.588000,0.000000,0.000000,0.000000,31.0473175,-103.5266418,884.880,0.000,6070,21
"COREYMAY3",98,37904,0,9490845,901.700012,52.740002,0.122344,0.069475,0.997436,-0.060976,-0.121951,0.792683,0.539000,0.294000,0.539000,0.000000,0.000000,0.000000,31.0473175,-103.5266418,884.880,0.000,6070,21
"COREYMAY3",98,35490,0,9490855,901.700012,52.740002,0.140904,0.047863,1.006471,-0.060976,-0.121951,0.182927,0.588000,0.294000,0.588000,0.000000,0.000000,0.000000,31.0473175,-103.5266418,884.880,0.000,6070,21
"COREYMAY3",98,60208,0,9490865,901.700012,52.740002,0.069597,0.033089,0.978144,-0.121951,-0.060976,-0.731707,0.539000,0.245000,0.637000,0.000000,0.000000,0.000000,31.0473175,-103.5266418,884.880,0.000,6070,21
"COREYMAY3",98,50283,0,9490875,901.690002,52.740002,0.122955,0.054823,0.996459,-0.121951,-0.060976,-0.609756,0.490000,0.294000,0.588000,0.000000,0.000000,0.000000,31.0473175,-103.5266418,884.880,0.000,6070,21
"COREYMAY3",98,21010,0,9490885,901.690002,52.740002,0.136264,0.046276,1.003663,-0.182927,0.000000,-0.731707,0.539000,0.392000,0.637000,0.000000,0.000000,0.000000,31.0473175,-103.5266418,884.880,0.000,6070,21
"COREYMAY3",98,46165,0,9490895,901.690002,52.740002,0.075824,0.054701,0.976801,-0.060976,0.060976,-1.158537,0.588000,0.343000,0.539000,0.000000,0.000000,0.000000,31.0473175,-103.5266418,884.880,0.000,6070,21
"COREYMAY3",98,50662,0,9490905,901.690002,52.740002,0.109035,0.048230,0.996703,0.000000,0.060976,-1.158537,0.637000,0.294000,0.490000,0.000000,0.000000,0.000000,31.0473175,-103.5266418,884.880,0.000,6070,21
"COREYMAY3",98,45896,0,9490915,901.679993,52.740002,0.138462,0.071917,1.010134,0.000000,0.060976,-1.280488,0.588000,0.392000,0.686000,0.000000,0.000000,0.000000,31.0473175,-103.5266418,884.880,0.000,6070,21
"COREYMAY3",98,5593,0,9490925,901.679993,52.740002,0.066789,0.029548,0.979853,0.000000,0.182927,-0.914634,0.539000,0.343000,0.637000,0.000000,0.000000,0.000000,31.0473175,-103.5266418,884.880,0.000,6070,21
"COREYMAY3",98,21714,0,9490935,901.679993,52.740002,0.104029,0.081929,0.984737,0.000000,0.182927,-0.548781,0.588000,0.294000,0.686000,0.000000,0.000000,0.000000,31.0473175,-103.5266418,884.880,0.000,6070,21
"COREYMAY3",98,62419,0,9490945,901.679993,52.740002,0.138706,0.065690,1.013797,0.060976,0.182927,-1.036585,0.490000,0.343000,0.539000,0.000000,0.000000,0.000000,31.0473175,-103.5266418,884.880,0.000,6070,21
"COREYMAY3",98,8070,0,9490955,901.729980,52.740002,0.063004,0.047863,0.981074,0.000000,0.121951,-1.890244,0.539000,0.343000,0.490000,0.000000,0.000000,0.000000,31.0473175,-103.5266418,884.880,0.000,6070,21
"COREYMAY3",98,50278,0,9490965,901.729980,52.740002,0.096093,0.076679,0.994383,-0.060976,0.060976,-2.012195,0.588000,0.343000,0.588000,0.000000,0.000000,0.000000,31.0473175,-103.5266418,884.880,0.000,6070,21
"COREYMAY3",98,62312,0,9490975,901.729980,52.740002,0.111111,0.053968,1.015385,-0.121951,0.060976,-2.073171,0.588000,0.245000,0.539000,0.000000,0.000000,0.000000,31.0473175,-103.5266418,884.880,0.000,6070,21
"COREYMAY3",98,7008,0,9490985,901.729980,52.740002,0.064103,0.056777,0.971795,-0.060976,0.121951,-1.524390,0.539000,0.392000,0.490000,0.000000,0.000000,0.000000,31.0473175,-103.5266418,884.880,0.000,6070,21
"COREYMAY3",98,14252,0,9490995,901.690002,52.730000,0.098413,0.053724,0.998535,0.000000,0.121951,-0.914634,0.539000,0.441000,0.539000,0.000000,0.000000,0.000000,31.0473175,-103.5266418,884.880,0.000,6070,21
"COREYMAY3",98,59261,0,9491005,901.690002,52.730000,0.109402,0.087790,1.010134,0.060976,0.121951,-0.975610,0.588000,0.294000,0.539000,0.000000,0.000000,0.000000,31.0473175,-103.5266418,884.880,0.000,6070,21
"COREYMAY3",98,4380,0,9491015,901.690002,52.730000,0.053724,0.036142,0.978266,0.000000,0.121951,-0.609756,0.588000,0.294000,0.539000,0.000000,0.000000,0.000000,31.0473175,-103.5266418,884.880,0.000,6070,21
"COREYMAY3",98,45012,0,9491025,901.690002,52.730000,0.100855,0.082418,1.001587,0.000000,0.121951,0.426829,0.490000,0.294000,0.539000,0.000000,0.000000,0.000000,31.0473175,-103.5266418,884.880,0.000,6070,21
"COREYMAY3",98,30671,0,9491035,901.700012,52.740002,0.106593,0.047009,1.005250,0.060976,0.121951,1.097561,0.539000,0.245000,0.490000,0.000000,0.000000,0.000000,31.0473175,-103.5266418,884.880,0.000,6070,21
"COREYMAY3",98,30106,0,9491045,901.700012,52.740002,0.060928,0.057265,0.973871,0.121951,0.182927,1.341463,0.490000,0.441000,0.441000,0.000000,0.000000,0.000000,31.0473175,-103.5266418,884.880,0.000,6070,21
"COREYMAY3",98,10541,0,9491055,901.700012,52.740002,0.116239,0.073748,1.003419,0.121951,0.121951,1.219512,0.539000,0.392000,0.735000,0.000000,0.000000,0.000000,31.0473175,-103.5266418,884.880,0.000,6070,21
"COREYMAY3",98,49834,0,9491065,901.700012,52.740002,0.111355,0.058486,0.997680,0.121951,0.121951,0.853659,0.637000,0.343000,0.686000,0.000000,0.000000,0.000000,31.0473175,-103.5266418,884.880,0.000,6070,21
"COREYMAY3",98,18832,0,9491075,901.719971,52.740002,0.061050,0.045910,0.985470,0.121951,0.060976,0.853659,0.441000,0.343000,0.539000,0.000000,0.000000,0.000000,31.0473175,-103.5266418,884.880,0.000,6070,21
"COREYMAY3",98,2231,0,9491085,901.719971,52.740002,0.061050,0.045910,0.985470,0.121951,0.060976,0.853659,0.490000,0.392000,0.637000,0.000000,0.000000,0.000000,31.0473175,-103.5266418,884.880,0.000,6070,21
"COREYMAY3",98,23720,0,9491095,901.719971,52.740002,0.118193,0.059707,1.006838,0.060976,0.121951,1.341463,0.637000,0.245000,0.539000,0.000000,0.000000,0.000000,31.0473175,-103.5266418,884.880,0.000,6070,21
"COREYMAY3",98,1402,0,9491105,901.719971,52.740002,0.100977,0.064591,0.989377,0.060976,0.121951,0.792683,0.539000,0.245000,0.588000,0.000000,0.000000,0.000000,31.0473175,-103.5266418,884.880,0.000,6070,21
"COREYMAY3",98,28713,0,9491115,901.739990,52.740002,0.093162,0.039072,0.987790,0.121951,0.121951,-0.060976,0.588000,0.294000,0.539000,0.000000,0.000000,0.000000,31.0473175,-103.5266418,884.880,0.000,6070,21
"COREYMAY3",98,27278,0,9491125,901.739990,52.740002,0.116361,0.072527,1.005128,0.060976,0.060976,-0.548781,0.539000,0.343000,0.490000,0.000000,0.000000,0.000000,31.0473175,-103.5266418,884.880,0.000,6070,21
"COREYMAY3",98,3759,0,9491135,901.739990,52.740002,0.092063,0.049328,0.991575,0.000000,0.060976,-1.036585,0.539000,0.343000,0.588000,0.000000,0.000000,0.000000,31.0473175,-103.5266418,884.880,0.000,6070,21
"COREYMAY3",98,36346,0,9491145,901.739990,52.740002,0.076190,0.045177,0.994750,0.000000,0.060976,-0.731707,0.637000,0.294000,0.539000,0.000000,0.000000,0.000000,31.0473175,-103.5266418,884.880,0.000,6070,21
"COREYMAY3",98,8756,0,9491155,901.719971,52.740002,0.124176,0.064957,1.000244,0.000000,0.000000,-0.365854,0.539000,0.343000,0.441000,0.000000,0.000000,0.000000,31.0473175,-103.5266418,884.880,0.000,6070,21
"COREYMAY3",98,51326,0,9491165,901.719971,52.740002,0.084982,0.056777,0.988767,0.060976,0.060976,-0.853659,0.490000,0.441000,0.539000,0.000000,0.000000,0.000000,31.0473175,-103.5266418,884.880,0.000,6070,21
"COREYMAY3",98,44634,0,9491175,901.719971,52.740002,0.084737,0.064225,0.987912,0.121951,0.060976,-0.914634,0.490000,0.294000,0.539000,0.000000,0.000000,0.000000,31.0473175,-103.5266418,884.880,0.000,6070,21
"COREYMAY3",98,10131,0,9491185,901.719971,52.740002,0.100244,0.059707,0.999145,0.060976,0.000000,-0.609756,0.441000,0.490000,0.686000,0.000000,0.000000,0.000000,31.0473175,-103.5266418,884.880,0.000,6070,21
"COREYMAY3",98,22328,0,9491195,901.789978,52.740002,0.092186,0.069109,0.999023,0.060976,-0.060976,-0.792683,0.490000,0.392000,0.588000,0.000000,0.000000,0.000000,31.0473175,-103.5266418,884.880,0.000,6070,21
"COREYMAY3",98,39902,0,9491205,901.789978,52.740002,0.069719,0.036020,0.996215,0.060976,0.000000,-0.548781,0.588000,0.294000,0.539000,0.000000,0.000000,0.000000,31.0473175,-103.5266418,884.880,0.000,6070,21
"COREYMAY3",98,54794,0,9491215,901.789978,52.740002,0.098779,0.076923,0.992308,0.000000,-0.060976,-0.731707,0.539000,0.294000,0.490000,0.000000,0.000000,0.000000,31.0473175,-103.5266418,884.880,0.000,6070,21
"COREYMAY3",98,19562,0,9491225,901.789978,52.740002,0.087668,0.064347,0.999878,0.000000,-0.060976,-1.280488,0.490000,0.245000,0.637000,0.000000,0.000000,0.000000,31.0473175,-103.5266418,884.880,0.000,6070,21
"COREYMAY3",98,57698,0,9491235,901.809998,52.740002,0.069109,0.055678,0.984249,0.060976,-0.182927,-0.975610,0.539000,0.343000,0.539000,0.000000,0.000000,0.000000,31.0473175,-103.5266418,884.880,0.000,6070,21
"COREYMAY3",98,45181,0,9491245,901.809998,52.740002,0.119048,0.084127,0.995971,0.000000,-0.243902,-0.792683,0.588000,0.245000,0.539000,0.000000,0.000000,0.000000,31.0473175,-103.5266418,884.880,0.000,6070,21
"COREYMAY3",98,24640,0,9491255,901.809998,52.740002,0.063614,0.060928,1.010989,-0.060976,-0.121951,-0.792683,0.588000,0.343000,0.539000,0.000000,0.000000,0.000000,31.0473175,-103.5266418,884.880,0.000,6070,21
"COREYMAY3",98,64416,0,9491265,901.809998,52.740002,0.070940,0.065079,0.973260,-0.121951,-0.121951,-0.426829,0.588000,0.343000,0.539000,0.000000,0.000000,0.000000,31.0473175,-103.5266418,884.880,0.000,6070,21
"COREYMAY3",98,53513,0,9491275,901.780029,52.740002,0.113553,0.055800,1.016361,-0.121951,-0.121951,-0.365854,0.588000,0.392000,0.686000,0.000000,0.000000,0.000000,31.0473175,-103.5266418,884.880,0.000,6070,21
"COREYMAY3",98,3004,0,9491285,901.780029,52.740002,0.075092,0.083028,0.983028,-0.182927,-0.121951,-0.121951,0.588000,0.343000,0.637000,0.000000,0.000000,0.000000,31.0473175,-103.5266418,884.880,0.000,6070,21
"COREYMAY3",98,61984,0,9491295,901.780029,52.740002,0.065690,0.061172,0.983761,-0.182927,-0.182927,0.243902,0.539000,0.343000,0.490000,0.000000,0.000000,0.000000,31.0473175,-103.5266418,884.880,0.000,6070,21
"COREYMAY3",98,7201,0,9491305,901.780029,52.740002,0.120391,0.080830,1.018926,-0.121951,-0.243902,0.487805,0.539000,0.343000,0.588000,0.000000,0.000000,0.000000,31.0473175,-103.5266418,884.880,0.000,6070,21
"COREYMAY3",98,1437,0,9491315,901.789978,52.730000,0.058120,0.054090,0.981807,-0.182927,-0.121951,0.914634,0.441000,0.392000,0.588000,0.000000,0.000000,0.000000,31.0473175,-103.5266418,884.880,0.000,6070,21
"COREYMAY3",98,20271,0,9491325,901.789978,52.730000,0.083394,0.068376,0.986203,-0.243902,-0.121951,1.402439,0.686000,0.245000,0.490000,0.000000,0.000000,0.000000,31.0473175,-103.5266418,884.880,0.000,6070,21
"COREYMAY3",98,56650,0,9491335,901.789978,52.730000,0.124664,0.076923,1.008669,-0.182927,-0.182927,1.829268,0.441000,0.245000,0.637000,0.000000,0.000000,0.000000,31.0473175,-103.5266418,884.880,0.000,6070,21
"COREYMAY3",98,26855,0,9491345,901.789978,52.730000,0.072894,0.050672,0.974359,-0.121951,-0.182927,1.829268,0.490000,0.343000,0.588000,0.000000,0.000000,0.000000,31.0473175,-103.5266418,884.880,0.000,6070,21
"COREYMAY3",98,18124,0,9491355,901.770020,52.740002,0.092430,0.074603,1.005006,-0.121951,-0.243902,1.402439,0.539000,0.343000,0.637000,0.000000,0.000000,0.000000,31.0473175,-103.5266418,884.880,0.000,6070,21
"COREYMAY3",98,17041,0,9491365,901.770020,52.740002,0.107326,0.053358,1.010623,-0.243902,-0.243902,1.219512,0.539000,0.343000,0.539000,0.000000,0.000000,0.000000,31.0473175,-103.5266418,884.880,0.000,6070,21
"COREYMAY3",98,59184,0,9491375,901.770020,52.740002,0.069963,0.054212,0.976557,-0.304878,-0.182927,0.853659,0.490000,0.392000,0.588000,0.000000,0.000000,0.000000,31.0473175,-103.5266418,884.880,0.000,6070,21
"COREYMAY3",98,62659,0,9491385,901.770020,52.740002,0.113065,0.062637,1.009402,-0.243902,-0.243902,0.731707,0.539000,0.392000,0.588000,0.000000,0.000000,0.000000,31.0473175,-103.5266418,884.880,0.000,6070,21
"COREYMAY3",98,47064,0,9491395,901.830017,52.740002,0.116850,0.061050,0.994383,-0.243902,-0.243902,0.731707,0.588000,0.343000,0.637000,0.000000,0.000000,0.000000,31.0473175,-103.5266418,884.880,0.000,6070,21
"COREYMAY3",98,18732,0,9491405,901.830017,52.740002,0.067888,0.044567,0.985714,-0.243902,-0.243902,0.000000,0.637000,0.343000,0.588000,0.000000,0.000000,0.000000,31.0473175,-103.5266418,884.880,0.000,6070,21
"COREYMAY3",98,49102,0,9491415,901.830017,52.740002,0.098657,0.072650,1.013309,-0.243902,-0.304878,-0.243902,0.588000,0.294000,0.588000,0.000000,0.000000,0.000000,31.0473175,-103.5266418,884.880,0.000,6070,21
"COREYMAY3",98,4646,0,9491425,901.830017,52.740002,0.108547,0.047009,0.991941,-0.365854,-0.243902,-0.060976,0.490000,0.294000,0.588000,0.000000,0.000000,0.000000,31.0473175,-103.5266418,884.880,0.000,6070,21
"COREYMAY3",98,51641,0,9491435,901.809998,52.740002,0.081929,0.044444,0.984737,-0.304878,-0.243902,-0.121951,0.588000,0.196000,0.588000,0.000000,0.000000,0.000000,31.0473175,-103.5266418,884.880,0.000,6070,21
"COREYMAY3",98,38955,0,9491445,901.809998,52.740002,0.104640,0.073993,0.998291,-0.182927,-0.182927,0.243902,0.490000,0.343000,0.441000,0.000000,0.000000,0.000000,31.0473175,-103.5266418,884.880,0.000,6070,21
"COREYMAY3",98,12637,0,9491455,901.809998,52.740002,0.108669,0.062759,0.990965,-0.182927,-0.243902,-0.060976,0.539000,0.294000,0.490000,0.000000,0.000000,0.000000,31.0473175,-103.5266418,884.880,0.000,6070,21
"COREYMAY3",98,19161,0,9491465,901.809998,52.740002,0.088767,0.054335,0.993407,-0.304878,-0.243902,-0.487805,0.539000,0.294000,0.588000,0.000000,0.000000,0.000000,31.0473175,-103.5266418,884.880,0.000,6070,21
"COREYMAY3",98,52055,0,9491475,901.809998,52.740002,0.098901,0.052503,0.992796,-0.304878,-0.243902,0.243902,0.637000,0.294000,0.588000,0.000000,0.000000,0.000000,31.0473175,-103.5266418,884.880,0.000,6070,21
"COREYMAY3",98,53942,0,9491485,901.809998,52.740002,0.108669,0.053724,0.993651,-0.243902,-0.182927,0.548781,0.539000,0.343000,0.539000,0.000000,0.000000,0.000000,31.0473175,-103.5266418,884.880,0.000,6070,21
"COREYMAY3",98,7936,0,9491495,901.809998,52.740002,0.084371,0.044200,0.994017,-0.121951,-0.121951,0.487805,0.539000,0.343000,0.686000,0.000000,0.000000,0.000000,31.0473175,-103.5266418,884.880,0.000,6070,21
"COREYMAY3",98,43628,0,9491505,901.809998,52.740002,0.109280,0.059585,0.986813,-0.121951,-0.182927,0.365854,0.539000,0.343000,0.686000,0.000000,0.000000,0.000000,31.0473175,-103.5266418,884.880,0.000,6070,21
"COREYMAY3",98,32265,0,9491515,901.739990,52.740002,0.102076,0.059096,1.007448,-0.182927,-0.243902,-0.548781,0.539000,0.294000,0.588000,0.000000,0.000000,0.000000,31.0473175,-103.5266418,884.880,0.000,6070,21
"COREYMAY3",98,32681,0,9491525,901.739990,52.740002,0.077045,0.049695,0.991209,-0.243902,-0.243902,-0.792683,0.441000,0.343000,0.490000,0.000000,0.000000,0.000000,31.0473175,-103.5266418,884.880,0.000,6070,21
"COREYMAY3",98,5609,0,9491535,901.739990,52.740002,0.103907,0.048840,0.987912,-0.243902,-0.243902,-0.243902,0.539000,0.392000,0.490000,0.000000,0.000000,0.000000,31.0473175,-103.5266418,884.880,0.000,6070,21
"COREYMAY3",98,71,0,9491545,901.739990,52.740002,0.113919,0.062149,1.006838,-0.121951,-0.182927,-0.426829,0.490000,0.343000,0.637000,0.000000,0.000000,0.000000,31.0473175,-103.5266418,884.880,0.000,6070,21
"COREYMAY3",98,62264,0,9491555,901.780029,52.740002,0.069353,0.038950,0.985958,-0.060976,-0.121951,-0.182927,0.539000,0.294000,0.588000,0.000000,0.000000,0.000000,31.0473175,-103.5266418,884.880,0.000,6070,21
"COREYMAY3",98,24894,0,9491565,901.780029,52.740002,0.106105,0.069353,0.991697,-0.060976,-0.121951,0.000000,0.539000,0.245000,0.539000,0.000000,0.000000,0.000000,31.0473175,-103.5266418,884.880,0.000,6070,21
"COREYMAY3",98,37631,0,9491575,901.780029,52.740002,0.100000,0.062271,1.014652,-0.121951,-0.182927,-0.060976,0.539000,0.392000,0.539000,0.000000,0.000000,0.000000,31.0473175,-103.5266418,884.880,0.000,6070,21
"COREYMAY3",98,61287,0,9491585,901.780029,52.740002,0.071184,0.031868,0.971673,-0.121951,-0.121951,0.731707,0.539000,0.294000,0.588000,0.000000,0.000000,0.000000,31.0473175,-103.5266418,884.880,0.000,6070,21
"COREYMAY3",98,10082,0,9491595,901.729980,52.740002,0.115873,0.064347,1.000244,-0.060976,-0.121951,0.975610,0.637000,0.245000,0.637000,0.000000,0.000000,0.000000,31.0473175,-103.5266418,884.880,0.000,6070,21
"COREYMAY3",98,12631,0,9491605,901.729980,52.740002,0.108303,0.063126,1.007814,0.000000,-0.060976,0.853659,0.539000,0.245000,0.588000,0.000000,0.000000,0.000000,31.0473175,-103.5266418,884.880,0.000,6070,21
"COREYMAY3",98,18411,0,9491615,901.729980,52.740002,0.068498,0.033944,0.972283,0.000000,-0.060976,0.914634,0.539000,0.294000,0.588000,0.000000,0.000000,0.000000,31.0473175,-103.5266418,884.880,0.000,6070,21
"COREYMAY3",98,31714,0,9491625,901.729980,52.740002,0.130403,0.060684,1.016361,0.000000,-0.121951,0.853659,0.637000,0.392000,0.637000,0.000000,0.000000,0.000000,31.0473175,-103.5266418,884.880,0.000,6070,21
"COREYMAY3",98,54872,0,9491635,901.799988,52.740002,0.090232,0.052015,1.002808,-0.060976,0.000000,0.853659,0.539000,0.245000,0.490000,0.000000,0.000000,0.000000,31.0473175,-103.5266418,884.880,0.000,6070,21
"COREYMAY3",98,54986,0,9491645,901.799988,52.740002,0.074359,0.027839,0.966545,-0.060976,0.000000,1.036585,0.637000,0.196000,0.539000,0.000000,0.000000,0.000000,31.0473175,-103.5266418,884.880,0.000,6070,21
"COREYMAY3",98,31438,0,9491655,901.799988,52.740002,0.146764,0.068987,1.023077,0.060976,-0.060976,0.609756,0.441000,0.294000,0.588000,0.000000,0.000000,0.000000,31.0473175,-103.5266418,884.880,0.000,6070,21
"COREYMAY3",98,35068,0,9491665,901.799988,52.740002,0.089744,0.048962,0.994750,0.121951,0.000000,0.182927,0.490000,0.343000,0.441000,0.000000,0.000000,0.000000,31.0473175,-103.5266418,884.880,0.000,6070,21
"COREYMAY3",98,41977,0,9491675,901.799988,52.740002,0.070940,0.035043,0.975580,0.000000,0.000000,-0.426829,0.490000,0.392000,0.637000,0.000000,0.000000,0.000000,31.0473175,-103.5266418,884.880,0.000,6070,21
"COREYMAY3",98,27210,0,9491685,901.799988,52.740002,0.134921,0.073260,1.027595,-0.060976,0.000000,-0.670732,0.539000,0.343000,0.588000,0.000000,0.000000,0.000000,31.0473175,-103.5266418,884.880,0.000,6070,21
"COREYMAY3",98,48491,0,9491695,901.799988,52.740002,0.089621,0.035531,0.981685,-0.060976,0.060976,-0.548781,0.588000,0.294000,0.490000,0.000000,0.000000,0.000000,31.0473175,-103.5266418,884.880,0.000,6070,21
"COREYMAY3",98,36038,0,9491705,901.799988,52.740002,0.080952,0.050305,0.986325,0.000000,0.060976,-0.609756,0.539000,0.343000,0.637000,0.000000,0.000000,0.000000,31.0473175,-103.5266418,884.880,0.000,6070,21
"COREYMAY3",98,4642,0,9491715,901.789978,52.740002,0.137851,0.064957,1.019780,0.121951,0.060976,-0.426829,0.490000,0.343000,0.539000,0.000000,0.000000,0.000000,31.0473175,-103.5266418,884.880,0.000,6070,21
"COREYMAY3",98,35699,0,9491725,901.789978,52.740002,0.064103,0.060684,0.976679,0.060976,0.121951,-0.670732,0.588000,0.294000,0.490000,0.000000,0.000000,0.000000,31.0473175,-103.5266418,884.880,0.000,6070,21
"COREYMAY3",98,60013,0,9491735,901.789978,52.740002,0.100000,0.052625,1.002198,0.000000,0.121951,-1.036585,0.588000,0.343000,0.539000,0.000000,0.000000,0.000000,31.0473175,-103.5266418,884.880,0.000,6070,21
"COREYMAY3",98,6772,0,9491745,901.789978,52.740002,0.109768,0.070085,1.007692,0.000000,0.121951,-0.853659,0.588000,0.343000,0.539000,0.000000,0.000000,0.000000,31.0473175,-103.5266418,884.880,0.000,6070,21
"COREYMAY3",98,64208,0,9491755,901.799988,52.740002,0.070818,0.048474,0.975214,0.000000,0.121951,-0.975610,0.490000,0.294000,0.588000,0.000000,0.000000,0.000000,31.0473175,-103.5266418,884.880,0.000,6070,21
"COREYMAY3",98,4318,0,9491765,901.799988,52.740002,0.081929,0.064957,1.007814,0.060976,0.121951,-1.097561,0.490000,0.343000,0.588000,0.000000,0.000000,0.000000,31.0473175,-103.5266418,884.880,0.000,6070,21
"COREYMAY3",98,3462,0,9491775,901.799988,52.740002,0.121856,0.070940,1.000488,0.060976,0.060976,-0.914634,0.539000,0.294000,0.490000,0.000000,0.000000,0.000000,31.0473175,-103.5266418,884.880,0.000,6070,21
"COREYMAY3",98,57000,0,9491785,901.799988,52.740002,0.055556,0.057021,0.984371,0.000000,0.121951,-1.402439,0.539000,0.245000,0.588000,0.000000,0.000000,0.000000,31.0473175,-103.5266418,884.880,0.000,6070,21
"COREYMAY3",98,31394,0,9491795,901.760010,52.730000,0.092430,0.084249,1.010501,0.000000,0.121951,-1.280488,0.490000,0.392000,0.637000,0.000000,0.000000,0.000000,31.0473175,-103.5266418,884.880,0.000,6070,21
"COREYMAY3",98,33898,0,9491805,901.760010,52.730000,0.100244,0.055678,0.991209,-0.121951,0.121951,-0.609756,0.539000,0.294000,0.441000,0.000000,0.000000,0.000000,31.0473175,-103.5266418,884.880,0.000,6070,21
"COREYMAY3",98,13135,0,9491815,901.760010,52.730000,0.066422,0.066178,0.985592,-0.121951,0.060976,-0.731707,0.588000,0.245000,0.490000,0.000000,0.000000,0.000000,31.0473175,-103.5266418,884.880,0.000,6070,21
"COREYMAY3",98,20415,0,9491825,901.760010,52.730000,0.095482,0.072772,1.001954,-0.060976,0.000000,-0.243902,0.588000,0.294000,0.539000,0.000000,0.000000,0.000000,31.0473175,-103.5266418,884.880,0.000,6070,21
"COREYMAY3",98,33476,0,9491835,901.729980,52.730000,0.094628,0.070330,0.996581,-0.060976,0.000000,-0.182927,0.490000,0.392000,0.588000,0.000000,0.000000,0.000000,31.0473175,-103.5266418,884.880,0.000,6070,21
"COREYMAY3",98,41192,0,9491845,901.729980,52.730000,0.073382,0.060684,0.994994,-0.121951,0.060976,-0.426829,0.588000,0.245000,0.539000,0.000000,0.000000,0.000000,31.0473175,-103.5266418,884.880,0.000,6070,21
"COREYMAY3",98,47825,0,9491855,901.729980,52.730000,0.086569,0.069109,0.994139,-0.121951,0.060976,0.487805,0.686000,0.245000,0.686000,0.000000,0.000000,0.000000,31.0473175,-103.5266418,884.880,0.000,6070,21
"COREYMAY3",98,1424,0,9491865,901.729980,52.730000,0.107570,0.059585,0.994872,-0.060976,0.060976,1.036585,0.686000,0.294000,0.588000,0.000000,0.000000,0.000000,31.0473175,-103.5266418,884.880,0.000,6070,21
"COREYMAY3",98,55053,0,9491875,901.719971,52.730000,0.073993,0.057509,0.986569,-0.060976,0.060976,0.975610,0.588000,0.343000,0.539000,0.000000,0.000000,0.000000,31.0473175,-103.5266418,884.880,0.000,6070,21
"COREYMAY3",98,44449,0,9491885,901.719971,52.730000,0.097314,0.071306,0.993651,0.000000,-0.060976,1.219512,0.539000,0.343000,0.637000,0.000000,0.000000,0.000000,31.0473175,-103.5266418,884.880,0.000,6070,21
"COREYMAY3",98,50075,0,9491895,901.719971,52.730000,0.111966,0.061905,1.005494,-0.060976,-0.060976,0.426829,0.490000,0.294000,0.588000,0.000000,0.000000,0.000000,31.0473175,-103.5266418,884.880,0.000,6070,21
"COREYMAY3",98,51665,0,9491905,901.719971,52.730000,0.060440,0.048840,0.992308,-0.182927,-0.060976,-0.121951,0.441000,0.343000,0.490000,0.000000,0.000000,0.000000,31.0473175,-103.5266418,884.880,0.000,6070,21
"COREYMAY3",98,51800,0,9491915,901.789978,52.730000,0.101832,0.054701,0.994628,-0.182927,-0.060976,0.182927,0.490000,0.343000,0.588000,0.000000,0.000000,0.000000,31.0473175,-103.5266418,884.880,0.000,6070,21
"COREYMAY3",98,26033,0,9491925,901.789978,52.730000,0.107448,0.067277,1.000977,-0.182927,-0.060976,-0.304878,0.441000,0.392000,0.588000,0.000000,0.000000,0.000000,31.0473175,-103.5266418,884.880,0.000,6070,21
"COREYMAY3",98,2911,0,9491935,901.789978,52.730000,0.070696,0.048352,0.985470,-0.121951,-0.121951,-0.426829,0.637000,0.343000,0.588000,0.000000,0.000000,0.000000,31.0473175,-103.5266418,884.880,0.000,6070,21
"COREYMAY3",98,15200,0,9491945,901.789978,52.730000,0.108913,0.072772,0.998168,-0.121951,-0.182927,-0.365854,0.588000,0.343000,0.637000,0.000000,0.000000,0.000000,31.0473175,-103.5266418,884.880,0.000,6070,21
"COREYMAY3",98,45499,0,9491955,901.710022,52.730000,0.096215,0.061416,1.009890,-0.243902,-0.182927,-0.609756,0.441000,0.294000,0.490000,0.000000,0.000000,0.000000,31.0473175,-103.5266418,884.880,0.000,6070,21
"COREYMAY3",98,60177,0,9491965,901.710022,52.730000,0.057631,0.036874,0.977656,-0.243902,-0.121951,-0.121951,0.490000,0.343000,0.588000,0.000000,0.000000,0.000000,31.0473175,-103.5266418,884.880,0.000,6070,21
"COREYMAY3",98,49152,0,9491975,901.710022,52.730000,0.118926,0.064591,1.009035,-0.182927,-0.182927,0.426829,0.539000,0.294000,0.588000,0.000000,0.000000,0.000000,31.0473175,-103.5266418,884.880,0.000,6070,21
"COREYMAY3",98,36985,0,9491985,901.710022,52.730000,0.087668,0.059341,0.995482,-0.121951,-0.121951,0.243902,0.539000,0.245000,0.588000,0.000000,0.000000,0.000000,31.0473175,-103.5266418,884.880,0.000,6070,21
"COREYMAY3",98,40811,0,9491995,901.650024,52.730000,0.064103,0.055311,0.982906,-0.121951,-0.182927,0.304878,0.539000,0.245000,0.588000,0.000000,0.000000,0.000000,31.0473175,-103.5266418,884.880,0.000,6070,21
"COREYMAY3",98,24541,0,9492005,901.650024,52.730000,0.122955,0.061905,1.009035,-0.182927,-0.243902,0.304878,0.490000,0.294000,0.588000,0.000000,0.000000,0.000000,31.0473175,-103.5266418,884.880,0.000,6070,21
"COREYMAY3",98,39864,0,9492015,901.650024,52.730000,0.068987,0.062515,0.995726,-0.304878,-0.243902,0.121951,0.441000,0.392000,0.490000,0.000000,0.000000,0.000000,31.0473175,-103.5266418,884.880,0.000,6070,21
"COREYMAY3",98,33308,0,9492025,901.650024,52.730000,0.076068,0.033089,0.983516,-0.243902,-0.243902,0.670732,0.490000,0.294000,0.637000,0.000000,0.000000,0.000000,31.0473175,-103.5266418,884.880,0.000,6070,21
"COREYMAY3",98,16589,0,9492035,901.729980,52.730000,0.119902,0.076679,1.008669,-0.121951,-0.304878,0.487805,0.588000,0.392000,0.539000,0.000000,0.000000,0.000000,31.0473175,-103.5266418,884.880,0.000,6070,21
"COREYMAY3",98,15174,0,9492045,901.729980,52.730000,0.069597,0.053724,0.989499,-0.121951,-0.243902,0.000000,0.539000,0.294000,0.490000,0.000000,0.000000,0.000000,31.0473175,-103.5266418,884.880,0.000,6070,21
"COREYMAY3",98,62726,0,9492055,901.729980,52.730000,0.076435,0.066300,0.988156,-0.243902,-0.365854,-0.365854,0.686000,0.294000,0.490000,0.000000,0.000000,0.000000,31.0473175,-103.5266418,884.880,0.000,6070,21
"COREYMAY3",98,11314,0,9492065,901.729980,52.730000,0.123321,0.068864,1.016361,-0.365854,-0.426829,-0.731707,0.588000,0.343000,0.735000,0.000000,0.000000,0.000000,31.0473175,-103.5266418,884.880,0.000,6070,21
"COREYMAY3",98,45961,0,9492075,901.700012,52.730000,0.050916,0.046520,0.981074,-0.365854,-0.304878,-0.487805,0.539000,0.294000,0.588000,0.000000,0.000000,0.000000,31.0473175,-103.5266418,884.880,0.000,6070,21
"COREYMAY3",98,31778,0,9492085,901.700012,52.730000,0.095726,0.066911,0.993895,-0.243902,-0.304878,0.243902,0.490000,0.392000,0.539000,0.000000,0.000000,0.000000,31.0473175,-103.5266418,884.880,0.000,6070,21
"COREYMAY3",98,3051,0,9492095,901.700012,52.730000,0.118559,0.063858,1.009158,-0.182927,-0.365854,0.670732,0.490000,0.343000,0.539000,0.000000,0.000000,0.000000,31.0473175,-103.5266418,884.880,0.000,6070,21
"COREYMAY3",98,21353,0,9492105,901.700012,52.730000,0.064835,0.069353,0.976190,-0.182927,-0.304878,0.792683,0.588000,0.294000,0.588000,0.000000,0.000000,0.000000,31.0473175,-103.5266418,884.880,0.000,6070,21
"COREYMAY3",98,33142,0,9492115,901.679993,52.730000,0.100366,0.060073,0.997314,-0.243902,-0.365854,0.792683,0.588000,0.343000,0.588000,0.000000,0.000000,0.000000,31.0473175,-103.5266418,884.880,0.000,6070,21
"COREYMAY3",98,21027,0,9492125,901.679993,52.730000,0.105495,0.069353,1.005983,-0.304878,-0.365854,0.914634,0.539000,0.343000,0.490000,0.000000,0.000000,0.000000,31.0473175,-103.5266418,884.880,0.000,6070,21
"COREYMAY3",98,12588,0,9492135,901.679993,52.730000,0.074847,0.039316,0.974237,-0.304878,-0.365854,1.219512,0.392000,0.294000,0.539000,0.000000,0.000000,0.000000,31.0473175,-103.5266418,884.880,0.000,6070,21
"COREYMAY3",98,39263,0,9492145,901.679993,52.730000,0.093407,0.071184,1.004151,-0.182927,-0.365854,1.341463,0.588000,0.343000,0.637000,0.000000,0.000000,0.000000,31.0473175,-103.5266418,884.880,0.000,6070,21
"COREYMAY3",98,23394,0,9492155,901.700012,52.730000,0.130281,0.069109,1.001832,-0.182927,-0.365854,1.036585,0.490000,0.343000,0.539000,0.000000,0.000000,0.000000,31.0473175,-103.5266418,884.880,0.000,6070,21
"COREYMAY3",98,24547,0,9492165,901.700012,52.730000,0.067643,0.057143,0.977656,-0.304878,-0.304878,0.121951,0.539000,0.294000,0.490000,0.000000,0.000000,0.000000,31.0473175,-103.5266418,884.880,0.000,6070,21
"COREYMAY3",98,56076,0,9492175,901.700012,52.730000,0.114286,0.069841,1.004518,-0.304878,-0.365854,0.121951,0.490000,0.294000,0.490000,0.000000,0.000000,0.000000,31.0473175,-103.5266418,884.880,0.000,6070,21
"COREYMAY3",98,7388,0,9492185,901.700012,52.730000,0.109035,0.047863,1.000977,-0.365854,-0.426829,0.487805,0.588000,0.294000,0.539000,0.000000,0.000000,0.000000,31.0473175,-103.5266418,884.880,0.000,6070,21
"COREYMAY3",98,45516,0,9492195,901.729980,52.730000,0.084249,0.048230,0.989988,-0.304878,-0.304878,0.731707,0.539000,0.343000,0.490000,0.000000,0.000000,0.000000,31.0473175,-103.5266418,884.880,0.000,6070,21
"COREYMAY3",98,40773,0,9492205,901.729980,52.730000,0.116606,0.064957,0.993529,-0.182927,-0.243902,0.914634,0.539000,0.245000,0.588000,0.000000,0.000000,0.000000,31.0473175,-103.5266418,884.880,0.000,6070,21
"COREYMAY3",98,31951,0,9492215,901.729980,52.730000,0.122100,0.067033,0.997802,-0.182927,-0.182927,0.182927,0.539000,0.392000,0.686000,0.000000,0.000000,0.000000,31.0473175,-103.5266418,884.880,0.000,6070,21
"COREYMAY3",98,60851,0,9492225,901.729980,52.730000,0.082540,0.052259,0.986813,-0.304878,-0.182927,-0.609756,0.539000,0.294000,0.588000,0.000000,0.000000,0.000000,31.0473175,-103.5266418,884.880,0.000,6070,21
"COREYMAY3",98,38926,0,9492235,901.760010,52.730000,0.099023,0.059585,0.996947,-0.426829,-0.243902,-0.182927,0.539000,0.294000,0.588000,0.000000,0.000000,0.000000,31.0473175,-103.5266418,884.880,0.000,6070,21
"COREYMAY3",98,49660,0,9492245,901.760010,52.730000,0.125763,0.047741,0.995726,-0.365854,-0.182927,0.426829,0.588000,0.343000,0.490000,0.000000,0.000000,0.000000,31.0473175,-103.5266418,884.880,0.000,6070,21
"COREYMAY3",98,8261,0,9492255,901.760010,52.730000,0.066178,0.048352,0.991941,-0.243902,-0.060976,0.487805,0.637000,0.245000,0.539000,0.000000,0.000000,0.000000,31.0473175,-103.5266418,884.880,0.000,6070,21
"COREYMAY3",98,59942,0,9492265,901.760010,52.730000,0.121856,0.061905,0.994017,-0.243902,-0.121951,0.670732,0.588000,0.343000,0.490000,0.000000,0.000000,0.000000,31.0473175,-103.5266418,884.880,0.000,6070,21
"COREYMAY3",98,36575,0,9492275,901.760010,52.730000,0.116972,0.065568,1.004884,-0.243902,-0.060976,-0.182927,0.588000,0.343000,0.490000,0.000000,0.000000,0.000000,31.0473175,-103.5266418,884.880,0.000,6070,21
"COREYMAY3",98,52160,0,9492285,901.760010,52.730000,0.069963,0.043956,0.981563,-0.243902,-0.060976,-0.426829,0.588000,0.294000,0.539000,0.000000,0.000000,0.000000,31.0473175,-103.5266418,884.880,0.000,6070,21
"COREYMAY3",98,45619,0,9492295,901.760010,52.730000,0.100488,0.054212,0.993284,-0.243902,-0.121951,0.121951,0.441000,0.392000,0.686000,0.000000,0.000000,0.000000,31.0473175,-103.5266418,884.880,0.000,6070,21
"COREYMAY3",98,36466,0,9492305,901.760010,52.730000,0.122100,0.062393,1.010867,-0.182927,-0.121951,-0.060976,0.588000,0.294000,0.539000,0.000000,0.000000,0.000000,31.0473175,-103.5266418,884.880,0.000,6070,21
"COREYMAY3",98,7482,0,9492315,901.739990,52.730000,0.061416,0.049817,0.975946,-0.243902,-0.121951,-0.243902,0.539000,0.343000,0.637000,0.000000,0.000000,0.000000,31.0473175,-103.5266418,884.880,0.000,6070,21
"COREYMAY3",98,33198,0,9492325,901.739990,52.730000,0.114774,0.074847,0.995971,-0.243902,-0.121951,-0.609756,0.490000,0.294000,0.539000,0.000000,0.000000,0.000000,31.0473175,-103.5266418,884.880,0.000,6070,21
"COREYMAY3",98,13958,0,9492335,901.739990,52.730000,0.106960,0.054945,1.011477,-0.304878,-0.060976,-0.914634,0.588000,0.196000,0.539000,0.000000,0.000000,0.000000,31.0473175,-103.5266418,884.880,0.000,6070,21
"COREYMAY3",98,15388,0,9492345,901.739990,52.730000,0.053358,0.053114,0.971429,-0.304878,-0.060976,-0.121951,0.490000,0.245000,0.490000,0.000000,0.000000,0.000000,31.0473175,-103.5266418,884.880,0.000,6070,21
"COREYMAY3",98,16421,0,9492355,901.690002,52.730000,0.118193,0.041270,1.005739,-0.182927,-0.182927,0.853659,0.539000,0.392000,0.588000,0.000000,0.000000,0.000000,31.0473175,-103.5266418,884.880,0.000,6070,21
"COREYMAY3",98,47107,0,9492365,901.690002,52.730000,0.097192,0.074603,1.006960,-0.060976,-0.121951,0.975610,0.441000,0.294000,0.490000,0.000000,0.000000,0.000000,31.0473175,-103.5266418,884.880,0.000,6070,21
